Time(ms);AccX(m/s^2);AccY(m/s^2);AccZ(m/s^2);MagX(gauss);MagY(gauss);MagZ(gauss);GyroX(dps);GyroY(dps);GyroZ(dps)
32;-3.55;1.87;8.54;-0.06;0.19;-0.41;0.35;-3.01;3.85
41;-3.50;1.94;8.53;-0.06;0.19;-0.41;1.05;-2.24;3.85
50;-3.66;1.95;8.48;-0.06;0.19;-0.41;1.33;-2.94;4.06
59;-3.62;1.97;8.45;-0.05;0.19;-0.42;1.40;-3.15;3.99
67;-3.65;2.05;8.74;-0.05;0.19;-0.42;1.75;-2.94;3.92
76;-3.82;1.92;8.77;-0.05;0.19;-0.42;1.47;-2.24;3.36
85;-3.68;2.02;8.86;-0.06;0.19;-0.41;2.80;-0.70;3.36
94;-3.93;2.05;8.74;-0.06;0.19;-0.41;3.99;1.05;2.94
103;-3.85;1.99;8.61;-0.06;0.19;-0.41;4.69;0.91;2.94
111;-3.85;1.88;8.48;-0.04;0.20;-0.41;5.74;0.42;3.43
120;-3.69;1.95;8.52;-0.04;0.20;-0.41;5.88;0.00;3.43
129;-3.63;1.83;8.52;-0.04;0.20;-0.41;5.60;-0.28;3.57
138;-3.48;1.84;8.54;-0.06;0.20;-0.41;5.18;1.05;3.01
146;-3.65;1.82;8.43;-0.06;0.20;-0.41;5.39;1.68;0.84
155;-3.46;1.90;8.46;-0.06;0.20;-0.40;5.32;3.36;2.38
164;-3.59;1.78;8.55;-0.05;0.20;-0.40;5.11;4.34;2.59
173;-3.54;1.82;8.51;-0.05;0.20;-0.40;5.04;4.69;3.08
181;-3.47;1.69;8.37;-0.05;0.20;-0.40;5.74;3.57;2.94
190;-3.51;1.71;8.40;-0.05;0.20;-0.40;5.95;3.29;3.01
199;-3.57;1.79;8.43;-0.05;0.20;-0.40;6.37;2.03;3.22
208;-3.45;1.79;8.34;-0.05;0.20;-0.42;6.72;0.49;3.64
216;-3.43;1.77;8.41;-0.05;0.20;-0.42;6.79;0.21;3.36
225;-3.46;1.85;8.53;-0.05;0.20;-0.42;5.88;0.70;2.52
234;-3.46;1.83;8.66;-0.05;0.20;-0.40;4.41;1.19;1.33
243;-3.36;1.82;8.71;-0.05;0.20;-0.40;2.94;2.45;0.21
251;-3.64;1.79;8.83;-0.05;0.20;-0.40;2.66;3.99;0.00
260;-3.67;1.73;8.67;-0.06;0.19;-0.42;2.24;4.76;0.14
269;-3.69;1.67;8.74;-0.06;0.19;-0.42;3.64;5.18;0.84
278;-3.75;1.59;8.72;-0.06;0.19;-0.42;6.30;4.55;2.73
286;-3.79;1.60;8.62;-0.05;0.20;-0.41;9.38;2.59;4.06
295;-3.78;1.77;8.61;-0.05;0.20;-0.41;11.76;1.19;4.97
304;-3.66;1.67;8.61;-0.05;0.20;-0.41;11.06;0.00;5.04
313;-3.76;1.62;8.59;-0.05;0.21;-0.41;8.96;-0.28;3.71
322;-3.67;1.75;8.75;-0.05;0.21;-0.41;6.72;-0.70;2.66
330;-3.78;1.62;8.76;-0.05;0.21;-0.41;5.74;0.21;2.03
339;-3.85;1.59;8.77;-0.07;0.20;-0.41;4.90;0.00;1.96
348;-3.77;1.67;8.86;-0.07;0.20;-0.41;4.13;0.77;2.31
357;-3.87;1.67;8.92;-0.07;0.20;-0.41;4.20;2.10;2.17
365;-3.90;1.74;8.82;-0.06;0.20;-0.41;4.90;2.17;2.17
374;-3.87;1.67;8.80;-0.06;0.20;-0.41;5.81;1.33;2.03
383;-3.78;1.64;8.78;-0.06;0.20;-0.41;5.18;0.77;1.68
392;-3.88;1.65;8.74;-0.06;0.21;-0.41;3.57;0.21;0.49
401;-3.82;1.67;8.81;-0.06;0.21;-0.41;1.19;-0.28;0.28
409;-3.78;1.64;8.79;-0.06;0.21;-0.41;-2.10;0.84;-1.33
418;-3.69;1.59;8.90;-0.05;0.20;-0.41;-3.99;1.19;-1.82
427;-3.64;1.50;8.80;-0.05;0.20;-0.41;-5.39;0.77;-1.68
436;-3.58;1.62;8.74;-0.05;0.20;-0.41;-4.90;0.49;-1.68
444;-3.68;1.61;8.81;-0.06;0.21;-0.42;-4.48;0.98;-1.89
453;-3.63;1.74;8.97;-0.06;0.21;-0.42;-4.27;2.03;-2.24
462;-3.78;1.72;9.07;-0.06;0.21;-0.42;-2.31;3.43;-2.10
471;-3.85;1.69;8.94;-0.06;0.20;-0.41;-0.35;4.27;-2.10
480;-3.88;1.59;8.91;-0.06;0.20;-0.41;1.47;3.85;-1.82
489;-3.95;1.54;8.82;-0.06;0.20;-0.42;2.87;3.57;-0.28
497;-3.87;1.49;8.78;-0.06;0.20;-0.42;3.50;2.38;0.28
506;-3.82;1.60;8.72;-0.06;0.20;-0.42;3.78;2.24;1.05
515;-3.95;1.70;8.57;-0.05;0.21;-0.41;2.45;1.12;0.98
524;-3.86;1.67;8.83;-0.05;0.21;-0.41;1.33;0.49;0.91
533;-3.76;1.59;8.76;-0.05;0.21;-0.41;0.28;17.78;0.07
541;-3.78;1.75;8.71;-0.06;0.21;-0.42;-1.89;-0.07;-0.70
550;-3.69;1.67;8.64;-0.06;0.21;-0.42;-4.06;-0.56;-1.19
559;-3.63;1.62;8.75;-0.06;0.21;-0.42;-5.18;-0.98;-1.26
568;-3.77;1.67;8.84;-0.06;0.21;-0.42;-5.25;0.07;-1.26
577;-3.77;1.72;9.01;-0.06;0.21;-0.42;-3.99;-0.70;-1.12
586;-3.63;1.69;9.07;-0.06;0.21;-0.42;-1.47;0.14;0.00
594;-3.65;1.74;9.05;-0.05;0.21;-0.42;1.05;1.89;-0.07
603;-3.76;1.80;8.98;-0.05;0.21;-0.42;1.82;1.68;0.42
612;-3.69;1.63;8.74;-0.05;0.21;-0.42;2.24;0.84;0.84
621;-3.65;1.67;8.78;-0.05;0.21;-0.41;1.68;0.35;0.14
630;-3.66;1.64;8.79;-0.05;0.21;-0.41;0.14;0.00;-0.49
639;-3.64;1.60;8.65;-0.05;0.21;-0.41;-1.54;-0.56;-1.33
647;-3.70;1.59;8.72;-0.05;0.21;-0.43;-3.50;-0.77;-2.45
656;-3.63;1.61;8.71;-0.05;0.21;-0.43;-4.62;-0.91;-3.22
665;-3.68;1.49;8.71;-0.05;0.21;-0.43;-5.18;-1.47;-3.36
674;-3.61;1.62;8.71;-0.05;0.21;-0.41;-6.30;-0.70;-3.78
683;-3.62;1.58;8.82;-0.05;0.21;-0.41;-5.95;-0.28;-3.36
691;-3.47;1.50;8.78;-0.05;0.21;-0.41;-3.50;0.70;-2.31
700;-3.50;1.56;8.80;-0.05;0.21;-0.42;-1.05;0.56;-1.61
709;-3.42;1.39;8.74;-0.05;0.21;-0.42;1.12;1.19;-0.14
718;-3.51;1.45;8.81;-0.05;0.21;-0.42;3.92;1.26;0.49
726;-3.65;1.36;8.59;-0.06;0.21;-0.43;4.83;0.63;1.40
735;-3.55;1.47;8.49;-0.06;0.21;-0.43;4.34;-0.14;1.68
744;-3.60;1.41;8.31;-0.06;0.21;-0.43;3.08;-1.61;1.47
753;-3.50;1.46;8.49;-0.04;0.20;-0.42;1.89;-2.80;1.40
762;-3.45;1.64;8.49;-0.04;0.20;-0.42;1.12;-3.15;0.91
770;-3.40;1.64;8.59;-0.04;0.20;-0.42;1.05;-3.22;0.91
779;-3.63;1.56;8.75;-0.05;0.21;-0.42;0.35;-2.94;-1.40
788;-3.17;1.80;8.90;-0.05;0.21;-0.42;0.21;-2.31;-0.21
797;-3.37;1.71;8.87;-0.05;0.20;-0.43;0.98;0.00;0.07
805;-3.35;1.84;8.91;-0.05;0.20;-0.43;2.10;0.00;-1.33
814;-3.42;1.82;8.71;-0.05;0.20;-0.43;3.08;0.21;-1.75
823;-3.31;1.64;8.74;-0.06;0.21;-0.42;2.52;-0.28;-1.68
832;-3.37;1.61;8.74;-0.06;0.21;-0.42;1.12;-0.91;-2.03
840;-3.36;1.62;8.64;-0.06;0.21;-0.42;0.91;-1.75;-2.31
849;-3.33;1.62;8.44;-0.05;0.21;-0.42;0.14;-3.01;-3.15
858;-3.40;1.61;8.56;-0.05;0.21;-0.42;-0.14;-4.27;-3.64
867;-3.43;1.61;8.60;-0.05;0.21;-0.42;0.56;-4.20;-3.85
876;-3.35;1.54;8.64;-0.05;0.21;-0.41;1.05;-3.85;-3.36
884;-3.37;1.55;8.61;-0.05;0.21;-0.41;2.24;-3.78;-2.66
893;-3.51;1.47;8.79;-0.05;0.21;-0.41;5.32;-3.15;-1.82
902;-3.47;1.41;8.61;-0.05;0.22;-0.43;6.37;-2.80;-0.56
911;-3.61;1.37;8.44;-0.05;0.22;-0.43;6.09;-3.29;0.07
920;-3.40;1.41;8.48;-0.05;0.22;-0.43;3.43;-3.15;0.91
929;-3.49;1.44;8.56;-0.06;0.21;-0.42;1.26;-2.94;-0.07
937;-3.65;1.64;8.57;-0.06;0.21;-0.42;-1.68;-3.50;-0.28
946;-3.56;1.59;8.60;-0.06;0.21;-0.42;-3.36;-4.55;-0.91
955;-3.47;1.67;8.59;-0.06;0.21;-0.41;-3.92;-4.69;-1.40
964;-3.55;1.59;8.76;-0.06;0.21;-0.41;-3.57;-4.97;-1.61
972;-3.58;1.64;8.89;-0.06;0.21;-0.41;-2.45;-4.27;-2.17
981;-3.78;1.57;8.87;-0.06;0.21;-0.42;0.14;-2.87;-2.24
990;-3.84;1.53;8.79;-0.06;0.21;-0.42;0.63;-2.24;-2.87
999;-3.79;1.50;8.87;-0.06;0.21;-0.42;0.28;-1.89;-2.94
1008;-3.93;1.44;8.82;-0.05;0.22;-0.43;-1.19;-0.84;-2.94
1016;-3.77;1.39;8.84;-0.05;0.22;-0.43;-2.10;-0.70;-2.94
1025;-3.83;1.44;8.74;-0.05;0.22;-0.43;-1.19;-0.98;-1.75
1034;-3.83;1.45;8.75;-0.06;0.21;-0.42;1.89;-1.12;-0.07
1043;-3.77;1.41;8.69;-0.06;0.21;-0.42;2.94;-1.82;1.40
1051;-3.71;1.56;8.61;-0.06;0.21;-0.42;2.38;-3.08;2.31
1060;-3.72;1.77;8.70;-0.05;0.21;-0.42;2.52;-4.20;2.45
1069;-1.84;1.74;8.80;-0.05;0.21;-0.42;3.92;-4.34;1.75
1078;-3.58;1.77;8.94;-0.05;0.21;-0.42;4.27;-4.27;0.63
1086;-3.69;1.83;8.88;-0.06;0.21;-0.42;3.99;-3.92;-0.07
1095;-3.79;1.74;8.92;-0.06;0.21;-0.42;3.08;-4.41;-1.47
1104;-3.60;1.75;8.89;-0.06;0.21;-0.42;1.54;-4.55;-1.89
1113;-3.76;1.82;9.02;-0.05;0.21;-0.43;-0.14;-4.34;-1.26
1121;-3.73;1.77;9.17;-0.05;0.21;-0.43;0.00;-3.99;-1.75
1130;-3.61;1.82;9.05;-0.06;0.22;-0.42;0.77;-3.15;-2.38
1139;-3.72;1.64;9.05;-0.06;0.22;-0.42;2.80;-2.80;-1.61
1148;-3.71;1.62;8.88;-0.06;0.22;-0.42;5.95;-2.45;-0.07
1157;-3.66;1.72;8.59;-0.06;0.21;-0.42;8.54;-3.43;0.77
1166;-3.58;1.74;8.50;-0.06;0.21;-0.42;8.82;-4.13;0.14
1174;-3.77;1.79;8.59;-0.06;0.21;-0.42;7.21;-5.11;-1.61
1183;-3.83;1.69;8.67;-0.06;0.21;-0.43;2.52;-5.53;-3.50
1192;-3.82;1.71;8.75;-0.06;0.21;-0.43;0.70;-4.97;-4.83
1201;-3.91;1.52;8.77;-0.06;0.21;-0.43;0.00;-4.90;-5.53
1209;-3.91;1.50;8.82;-0.06;0.21;-0.43;-0.35;-4.48;-5.04
1218;-3.90;1.58;8.69;-0.06;0.21;-0.43;0.49;-4.55;-3.85
1227;-3.82;1.61;8.74;-0.06;0.21;-0.43;2.03;-3.71;-2.17
1236;-3.98;1.75;8.59;-0.07;0.23;-0.42;2.94;-3.36;-3.29
1245;-3.99;1.77;8.62;-0.07;0.23;-0.42;3.22;-3.15;-4.20
1254;-4.26;1.68;8.66;-0.07;0.23;-0.42;2.10;-2.38;-5.25
1262;-4.26;1.69;8.62;-0.06;0.22;-0.42;-17.78;-2.38;-6.51
1271;-4.34;1.53;8.59;-0.06;0.22;-0.42;-2.87;-2.45;-6.02
1280;-4.13;1.44;8.71;-0.06;0.22;-0.42;-1.54;-2.87;-5.04
1289;-4.16;1.53;8.54;-0.06;0.22;-0.42;2.66;-3.50;-3.29
1298;-3.97;1.48;8.47;-0.06;0.22;-0.42;5.67;-3.99;-1.61
1306;-3.96;1.66;8.45;-0.06;0.22;-0.42;6.02;-4.55;-1.47
1315;-3.99;1.75;8.38;-0.06;0.21;-0.43;3.57;-4.97;-2.73
1324;-3.98;1.87;8.56;-0.06;0.21;-0.43;0.35;-4.55;-3.50
1333;-4.06;1.87;8.55;-0.06;0.21;-0.43;-1.68;-4.41;-4.90
1342;-4.08;1.69;8.54;-0.05;0.22;-0.41;-2.73;-3.92;-5.74
1351;-4.06;1.57;8.50;-0.05;0.22;-0.41;-3.99;-3.71;-5.25
1359;-4.11;1.55;8.56;-0.05;0.22;-0.41;-1.54;-3.50;-4.55
1368;-3.91;1.55;8.54;-0.06;0.22;-0.43;0.63;-3.57;-3.36
1377;-3.65;1.56;8.33;-0.06;0.22;-0.43;2.45;-3.85;-2.24
1386;-3.67;1.61;8.36;-0.06;0.22;-0.43;3.57;-4.76;-2.03
1394;-3.56;1.50;8.33;-0.06;0.22;-0.44;2.24;-5.81;-1.96
1403;-3.51;1.37;8.25;-0.06;0.22;-0.44;1.54;-6.86;-3.01
1412;-3.52;1.41;8.38;-0.07;0.22;-0.43;1.40;-7.42;-3.08
1421;-3.66;1.36;8.40;-0.07;0.22;-0.43;1.75;-7.07;-3.78
1430;-3.98;1.36;8.37;-0.07;0.22;-0.43;1.33;-6.37;-4.20
1439;-4.01;1.31;8.31;-0.07;0.22;-0.43;-0.07;-5.88;-3.92
1447;-3.96;1.44;8.50;-0.07;0.22;-0.43;-0.84;-6.16;-4.69
1456;-4.03;1.25;8.47;-0.07;0.22;-0.43;-2.24;-7.07;-4.90
1465;-4.09;1.25;8.49;-0.06;0.23;-0.43;-3.43;-7.00;-4.97
1474;-4.05;1.39;8.39;-0.06;0.23;-0.43;-3.29;-7.56;-4.69
1483;-4.09;1.35;8.29;-0.06;0.23;-0.43;-1.40;-8.12;-3.57
1491;-4.16;1.34;8.50;-0.06;0.22;-0.43;1.05;-10.01;-2.87
1500;-4.03;1.51;8.51;-0.06;0.22;-0.43;3.15;-10.08;-1.05
1509;-4.15;1.59;8.66;-0.06;0.22;-0.43;5.88;-9.31;-0.84
1518;-4.09;1.64;8.76;-0.06;0.22;-0.42;6.72;-8.47;-1.19
1526;-4.16;1.73;8.71;-0.06;0.22;-0.42;5.25;-6.65;-1.75
1535;-4.22;1.79;8.67;-0.06;0.22;-0.42;4.55;-5.25;-3.71
1544;-4.28;1.62;8.48;-0.06;0.22;-0.43;3.50;-4.48;-4.83
1553;-4.26;1.56;8.57;-0.06;0.22;-0.43;2.24;-4.34;-5.11
1561;-4.24;1.55;8.41;-0.06;0.22;-0.43;1.61;-4.48;-5.18
1570;-4.29;1.36;8.24;-0.07;0.22;-0.43;1.40;-5.25;-4.83
1579;-4.12;1.42;8.25;-0.07;0.22;-0.43;0.91;-7.00;-4.27
1588;-4.24;1.60;8.18;-0.07;0.22;-0.43;2.31;-7.70;-3.22
1597;-4.29;1.69;8.38;-0.07;0.23;-0.42;4.34;-9.10;-3.43
1605;-4.36;1.67;8.38;-0.07;0.23;-0.42;3.99;-9.80;-4.13
1614;-4.33;1.65;8.56;-0.07;0.23;-0.42;2.87;-8.82;-4.55
1623;-4.19;1.79;8.48;-0.08;0.22;-0.42;2.03;-7.21;-5.11
1632;-4.11;1.71;8.68;-0.08;0.22;-0.42;3.29;-6.16;-5.18
1641;-4.13;1.70;8.53;-0.08;0.22;-0.42;3.29;-7.00;-5.46
1649;-4.00;1.63;8.67;-0.07;0.22;-0.43;0.98;-7.07;-5.39
1658;-4.11;1.65;8.59;-0.07;0.22;-0.43;-1.19;-7.42;-6.58
1667;-4.02;1.51;8.54;-0.07;0.22;-0.43;-2.38;-7.84;-7.77
1676;-3.98;1.44;8.42;-0.07;0.22;-0.43;-2.03;-8.33;-8.26
1685;-4.01;1.40;8.37;-0.07;0.22;-0.43;-1.40;-9.17;-8.68
1694;-4.16;1.45;8.40;-0.07;0.22;-0.43;1.05;-9.80;-8.05
1702;-4.21;1.50;8.30;-0.08;0.22;-0.42;2.31;-11.34;-8.12
1711;-4.27;1.34;8.36;-0.08;0.22;-0.42;0.77;-12.95;-8.12
1720;-4.29;1.34;8.46;-0.07;0.23;-0.42;-1.19;-12.18;-8.96
1729;-4.21;1.31;8.60;-0.07;0.23;-0.42;-3.85;-9.45;-8.75
1738;-4.47;1.31;8.41;-0.07;0.23;-0.42;-4.13;-9.31;-9.52
1746;-4.45;1.44;8.41;-0.08;0.23;-0.43;-2.03;-7.35;-7.00
1755;-4.27;1.49;8.43;-0.08;0.23;-0.43;1.19;-7.84;-5.88
1764;-4.36;1.64;8.31;-0.08;0.23;-0.43;6.09;-8.12;-4.90
1773;-4.33;1.74;8.20;-0.08;0.22;-0.42;8.54;-9.03;-4.20
1782;-4.20;2.07;8.11;-0.08;0.22;-0.42;7.63;-9.80;-4.41
1790;-4.25;2.13;8.15;-0.08;0.22;-0.42;7.07;-10.64;-5.46
1799;-4.41;2.00;8.15;-0.08;0.24;-0.43;5.32;-10.22;-7.56
1808;-4.44;1.98;8.26;-0.08;0.24;-0.43;3.01;-9.38;-9.52
1817;-4.49;1.77;8.35;-0.08;0.24;-0.43;1.19;-9.03;-11.62
1826;-4.55;1.58;8.43;-0.08;0.23;-0.43;-0.35;-7.63;-11.76
1835;-4.59;1.56;8.22;-0.08;0.23;-0.43;0.49;-7.07;-11.62
1843;-4.68;1.72;8.20;-0.08;0.23;-0.43;1.54;-7.35;-10.22
1852;-4.67;1.75;8.38;-0.08;0.22;-0.42;2.94;-8.61;-8.47
1861;-4.62;3.67;8.52;-0.08;0.22;-0.42;4.69;-8.54;-7.98
1870;-4.78;1.93;8.49;-0.08;0.22;-0.42;6.72;-8.82;-6.44
1878;-4.65;1.89;8.57;-0.08;0.24;-0.43;10.64;-7.77;-6.37
1887;-4.52;1.92;8.51;-0.08;0.24;-0.43;11.69;-6.51;-6.37
1896;-4.56;1.82;8.56;-0.08;0.24;-0.43;11.97;-5.53;-7.21
1905;-4.51;1.56;8.38;-0.08;0.23;-0.43;10.15;-5.67;-9.38
1914;-4.49;1.31;8.36;-0.08;0.23;-0.43;6.37;-5.53;-11.34
1923;-4.56;1.31;8.36;-0.08;0.23;-0.43;1.19;-7.28;-12.60
1931;-4.60;1.56;8.05;-0.08;0.24;-0.44;-3.29;-11.13;-15.68
1940;-4.04;0.79;8.49;-0.08;0.24;-0.44;-7.00;-7.98;-13.30
1949;-4.47;1.07;8.44;-0.08;0.24;-0.44;-6.72;-5.74;-12.74
1958;-4.52;1.21;8.33;-0.08;0.24;-0.43;-5.88;-7.07;-9.73
1966;-4.62;1.26;8.58;-0.08;0.24;-0.43;-1.82;-6.86;-7.49
1975;-4.64;1.42;8.76;-0.08;0.24;-0.43;1.19;-6.16;-6.72
1984;-4.54;1.36;8.84;-0.09;0.23;-0.43;4.27;-4.62;-5.32
1993;-4.31;1.23;8.51;-0.09;0.23;-0.43;9.31;-3.57;-4.62
2002;-4.28;1.17;8.28;-0.09;0.23;-0.43;12.39;-3.99;-2.17
2010;-4.27;1.25;7.94;-0.08;0.24;-0.42;12.25;-5.04;-1.89
2019;-4.34;1.67;8.04;-0.08;0.24;-0.42;6.86;-7.84;-4.69
2028;-4.29;1.26;7.87;-0.09;0.24;-0.42;-1.19;-7.98;-5.81
2037;-4.45;1.51;7.87;-0.09;0.24;-0.42;-9.31;-8.96;-8.96
2046;-4.44;1.51;8.01;-0.09;0.24;-0.42;-17.22;-11.76;-11.62
2054;-4.46;1.28;8.12;-0.09;0.24;-0.43;-20.65;-12.04;-12.74
2063;-4.55;1.31;8.28;-0.09;0.24;-0.43;-18.76;-11.62;-11.20
2072;-4.52;1.26;8.54;-0.09;0.24;-0.43;-11.83;-11.06;-7.98
2081;-4.56;1.51;8.64;-0.09;0.24;-0.43;-6.51;-8.82;-4.20
2090;-4.52;1.68;8.41;-0.09;0.24;-0.43;1.54;-6.09;-0.63
2099;-4.60;1.91;8.27;-0.09;0.24;-0.43;8.40;-4.69;0.91
2107;-4.54;2.16;7.98;-0.08;0.23;-0.43;10.78;-4.69;1.19
2116;-4.34;2.19;7.64;-0.08;0.23;-0.43;12.32;-5.88;-0.21
2125;-4.92;3.26;7.02;-0.08;0.23;-0.43;10.08;-14.14;-4.20
2134;-3.91;1.67;8.06;-0.10;0.24;-0.44;-1.96;-22.47;-11.76
2143;-4.06;2.01;7.90;-0.10;0.24;-0.44;-11.13;-13.30;-14.49
2152;-4.54;1.69;7.45;-0.10;0.24;-0.44;-19.39;-14.42;-16.87
2160;-4.85;1.57;7.66;-0.09;0.22;-0.43;-20.93;-17.22;-16.24
2169;-4.79;1.99;8.17;-0.09;0.22;-0.43;-18.27;-19.53;-13.79
2178;-4.95;2.00;8.31;-0.09;0.22;-0.43;-13.37;-18.06;-11.76
2187;-5.08;2.30;8.28;-0.10;0.23;-0.43;-9.45;-15.33;-9.52
2196;-5.23;2.33;7.96;-0.10;0.23;-0.43;-5.81;-12.95;-8.19
2205;-5.37;2.42;7.75;-0.10;0.23;-0.43;-1.26;-11.48;-7.98
2213;-5.57;2.45;8.00;-0.09;0.22;-0.44;0.77;-12.39;-8.26
2222;-3.71;2.46;8.02;-0.09;0.22;-0.44;1.12;-13.02;-9.03
2231;-5.51;2.23;7.86;-0.09;0.22;-0.44;-0.98;-13.86;-8.82
2240;-5.39;2.13;8.05;-0.09;0.23;-0.42;-5.32;-13.30;-9.52
2249;-5.36;2.10;8.26;-0.09;0.23;-0.42;-9.80;-13.44;-11.13
2257;-5.14;2.13;8.52;-0.09;0.23;-0.42;-11.48;-11.13;-11.13
2266;-5.31;2.16;8.53;-0.10;0.22;-0.41;-10.08;-8.47;-10.50
2275;-5.46;2.00;8.71;-0.10;0.22;-0.41;-9.94;-6.72;-8.54
2284;-5.61;2.10;8.74;-0.10;0.22;-0.42;-7.84;-4.41;-6.02
2293;-5.52;2.10;8.69;-0.10;0.22;-0.42;-3.71;-1.82;-4.48
2301;-5.63;1.92;8.59;-0.10;0.22;-0.42;-1.40;-0.70;-2.52
2310;-5.42;3.66;8.28;-0.09;0.23;-0.42;1.26;-0.35;0.14
2319;-5.31;1.84;8.14;-0.09;0.23;-0.42;3.43;-0.98;0.77
2328;-5.24;1.87;8.17;-0.09;0.23;-0.42;0.84;-2.24;1.33
2337;-5.08;1.94;8.25;-0.10;0.22;-0.41;-2.31;-2.17;0.56
2345;-5.07;1.95;8.10;-0.10;0.22;-0.41;-5.18;-1.82;-0.77
2354;-5.00;2.07;8.26;-0.10;0.22;-0.41;-7.56;-1.19;-0.63
2363;-4.96;2.18;8.41;-0.10;0.22;-0.43;-5.67;0.42;0.63
2372;-4.84;2.32;8.36;-0.10;0.22;-0.43;-1.19;1.61;2.87
2380;-4.95;2.50;8.50;-0.10;0.22;-0.43;3.71;2.31;4.27
2389;-4.79;2.43;8.33;-0.09;0.22;-0.41;6.72;2.73;5.74
2398;-4.85;2.26;8.31;-0.09;0.22;-0.41;9.38;3.15;5.18
2407;-4.84;2.02;8.16;-0.09;0.22;-0.41;7.98;2.17;3.99
2415;-4.82;1.79;7.95;-0.10;0.22;-0.42;4.48;1.19;1.54
2424;-4.86;1.49;7.82;-0.10;0.22;-0.42;-3.01;-0.63;-1.47
2433;-4.97;1.40;7.76;-0.10;0.22;-0.42;-9.17;-1.19;-3.15
2442;-4.85;1.41;8.13;-0.10;0.22;-0.42;-9.38;-0.91;-2.73
2451;-4.72;1.66;8.33;-0.10;0.22;-0.42;-6.02;0.07;0.07
2459;-4.68;1.97;8.49;-0.10;0.22;-0.42;-0.56;2.45;2.80
2468;-4.78;2.34;8.56;-0.10;0.22;-0.42;5.88;5.04;6.02
2477;-4.67;2.58;8.25;-0.10;0.22;-0.42;11.55;6.16;7.28
2486;-4.49;2.46;7.82;-0.10;0.22;-0.42;13.93;5.32;6.79
2494;-4.66;2.16;7.62;-0.09;0.22;-0.43;14.14;3.64;5.25
2503;-4.68;1.79;7.49;-0.09;0.22;-0.43;8.96;0.84;3.29
2512;-4.79;1.39;7.47;-0.09;0.22;-0.43;2.17;-0.91;-0.21
2521;-4.85;1.03;7.70;-0.09;0.23;-0.40;-5.88;-2.10;-2.31
2530;-4.79;1.03;7.88;-0.09;0.23;-0.40;-7.49;-1.54;-0.98
2538;-4.94;1.32;8.15;-0.09;0.23;-0.40;-2.59;-0.91;1.82
2547;-4.98;1.90;8.30;-0.10;0.23;-0.43;2.24;0.28;5.11
2556;-4.84;2.40;8.29;-0.10;0.23;-0.43;7.56;2.38;6.72
2565;-4.86;2.50;8.28;-0.10;0.23;-0.43;10.71;3.22;6.30
2574;-4.74;2.43;8.12;-0.09;0.23;-0.40;10.92;4.34;5.11
2583;-4.82;1.99;7.97;-0.09;0.23;-0.40;8.19;2.94;3.08
2592;-4.80;1.56;7.82;-0.09;0.23;-0.40;3.85;2.10;1.26
2600;-4.87;1.08;7.86;-0.10;0.22;-0.43;-1.19;0.77;0.28
2609;-5.07;0.83;7.95;-0.10;0.22;-0.43;-4.90;-0.21;1.19
2618;-4.93;1.12;8.08;-0.09;0.23;-0.41;-5.53;0.35;4.48
2627;-4.90;1.52;8.15;-0.09;0.23;-0.41;-1.89;1.54;7.28
2635;-4.96;1.96;8.22;-0.09;0.23;-0.41;3.99;2.24;10.01
2644;-5.02;2.07;8.26;-0.10;0.23;-0.42;7.21;1.68;10.50
2653;-4.82;2.19;8.20;-0.10;0.23;-0.42;6.72;3.22;9.80
2662;-4.97;2.12;8.26;-0.10;0.23;-0.42;7.07;4.48;8.68
2671;-5.08;1.86;8.28;-0.10;0.23;-0.42;6.44;4.41;7.70
2680;-5.01;1.79;8.42;-0.10;0.23;-0.42;5.11;4.90;7.00
2688;-4.92;1.74;8.28;-0.10;0.23;-0.42;3.71;5.04;6.02
2697;-4.91;1.70;8.18;-0.10;0.23;-0.42;2.17;5.25;6.65
2706;-4.84;1.77;8.08;-0.10;0.23;-0.42;3.57;4.48;8.26
2715;-4.81;1.63;8.00;-0.10;0.23;-0.42;4.83;2.59;9.38
2723;-4.97;1.70;8.10;-0.09;0.23;-0.43;3.36;1.75;9.38
2732;-5.03;1.41;8.29;-0.09;0.23;-0.43;0.35;1.33;8.19
2741;-5.09;1.35;8.39;-0.09;0.23;-0.43;-3.99;2.10;7.21
2750;-5.18;1.19;8.46;-0.10;0.23;-0.43;-6.58;3.78;8.75
2759;-5.06;1.51;8.42;-0.10;0.23;-0.43;-2.80;5.74;12.04
2767;-4.82;1.90;8.39;-0.10;0.23;-0.43;6.37;6.65;15.12
2776;-4.81;2.09;8.33;-0.10;0.23;-0.43;17.01;7.14;17.85
2785;-4.62;2.26;8.33;-0.10;0.23;-0.43;23.87;7.42;18.69
2794;-4.62;2.27;8.13;-0.10;0.23;-0.43;25.90;7.14;17.08
2803;-4.55;2.07;8.08;-0.09;0.23;-0.42;24.15;6.30;13.44
2811;-4.71;1.69;8.08;-0.09;0.23;-0.42;15.19;5.32;10.43
2820;-4.74;1.31;7.97;-0.09;0.23;-0.42;5.25;4.62;6.02
2829;-4.82;0.83;8.19;-0.10;0.24;-0.42;-5.53;5.18;0.84
2838;-5.02;0.46;8.11;-0.10;0.24;-0.42;-16.59;4.97;-0.56
2846;-4.99;0.58;8.00;-0.10;0.24;-0.42;-18.90;7.91;4.83
2855;-4.82;0.92;8.04;-0.10;0.23;-0.43;-8.61;7.42;9.87
2864;-4.69;1.25;7.85;-0.10;0.23;-0.43;1.61;6.23;15.05
2873;-4.80;1.64;7.96;-0.10;0.23;-0.43;9.52;6.72;18.55
2881;-4.72;1.82;7.98;-0.09;0.24;-0.43;16.31;6.44;17.36
2890;-4.80;1.85;8.14;-0.09;0.24;-0.43;15.33;7.07;13.16
2899;-4.90;1.78;8.21;-0.09;0.24;-0.43;7.91;9.73;5.60
2908;-5.18;1.19;8.24;-0.10;0.24;-0.43;-6.16;9.59;-0.70
2917;-5.33;0.24;8.04;-0.10;0.24;-0.43;-23.66;9.17;-0.70
2925;-4.90;0.04;8.21;-0.10;0.24;-0.43;-32.20;10.29;4.62
2934;-4.82;0.37;8.23;-0.10;0.24;-0.43;-27.37;11.20;8.82
2943;-4.96;0.48;8.20;-0.10;0.24;-0.43;-18.62;9.52;12.88
2952;-5.00;0.95;8.40;-0.09;0.25;-0.41;-13.44;9.45;18.34
2961;-4.82;1.44;8.39;-0.09;0.25;-0.41;-7.84;10.78;20.58
2969;-4.79;1.79;8.38;-0.09;0.25;-0.41;-1.89;11.06;20.51
2978;-4.67;1.80;8.33;-0.10;0.23;-0.44;5.04;12.53;19.67
2987;-4.77;1.86;8.31;-0.10;0.23;-0.44;9.24;13.51;16.59
2996;-4.93;1.83;8.26;-0.10;0.23;-0.44;7.84;13.30;10.99
3004;-4.82;1.59;8.10;-0.09;0.24;-0.43;-2.66;10.78;9.59
3013;-4.60;1.75;8.00;-0.09;0.24;-0.43;-10.29;11.48;10.57
3022;-4.59;1.69;8.07;-0.09;0.24;-0.43;-13.37;9.38;9.52
3031;-4.47;1.90;8.02;-0.09;0.23;-0.44;-13.58;7.07;11.97
3039;-4.36;1.98;8.23;-0.09;0.23;-0.44;-8.47;6.51;15.82
3048;-4.46;2.11;8.23;-0.09;0.23;-0.44;0.00;6.02;17.64
3057;-4.55;2.31;8.09;-0.09;0.24;-0.42;4.13;6.09;18.90
3066;-4.77;2.25;8.17;-0.09;0.24;-0.42;6.09;4.97;18.69
3075;-4.87;2.26;8.19;-0.09;0.24;-0.42;6.16;4.69;16.45
3083;-4.90;2.18;8.53;-0.09;0.23;-0.42;3.36;2.38;12.60
3092;-4.69;2.22;8.48;-0.09;0.23;-0.42;-0.21;1.19;10.15
3101;-4.56;2.07;8.58;-0.09;0.23;-0.42;-1.75;2.52;5.88
3110;-4.65;1.72;8.61;-0.09;0.25;-0.43;-4.34;3.71;1.61
3119;-4.50;1.73;8.48;-0.09;0.25;-0.43;-8.19;4.62;1.82
3127;-4.44;1.57;8.43;-0.09;0.25;-0.43;-9.80;6.72;2.38
3136;-4.58;1.49;8.57;-0.09;0.24;-0.41;-8.82;7.63;2.24
3145;-4.55;1.49;8.41;-0.09;0.24;-0.41;-7.63;7.56;4.62
3154;-4.59;1.44;8.28;-0.09;0.24;-0.41;-3.50;7.56;8.05
3163;-4.63;1.51;8.32;-0.09;0.24;-0.43;1.75;6.37;10.15
3171;-4.71;1.53;8.36;-0.09;0.24;-0.43;3.15;5.04;10.15
3180;-4.63;1.57;8.37;-0.09;0.24;-0.43;1.89;3.99;9.87
3189;-4.52;1.51;8.40;-0.09;0.23;-0.42;1.54;4.48;9.10
3198;-4.59;1.49;8.31;-0.09;0.23;-0.42;0.35;5.88;7.14
3207;-4.58;1.26;8.41;-0.09;0.23;-0.42;-3.29;7.00;4.90
3215;-4.55;1.18;8.33;-0.08;0.23;-0.41;-6.51;9.03;1.82
3224;-4.59;1.11;8.39;-0.08;0.23;-0.41;-9.03;10.57;-0.28
3233;-4.64;0.90;8.31;-0.08;0.23;-0.42;-10.78;10.99;0.63
3242;-4.51;0.95;8.34;-0.09;0.23;-0.42;-11.27;10.15;4.83
3251;-4.36;1.08;8.26;-0.09;0.23;-0.42;-6.72;8.33;8.47
3260;-4.32;1.28;8.33;-0.08;0.23;-0.42;-0.91;6.72;13.58
3268;-4.09;1.46;8.25;-0.08;0.23;-0.42;3.57;5.60;17.01
3277;-4.22;1.55;8.38;-0.08;0.23;-0.42;7.28;4.13;16.94
3286;-4.27;1.75;8.36;-0.08;0.23;-0.43;7.00;1.75;15.75
3295;-4.22;1.71;8.46;-0.08;0.23;-0.43;4.13;0.35;12.11
3304;-4.29;1.64;8.54;-0.08;0.23;-0.43;-0.49;1.05;7.00
3312;-4.09;1.82;8.84;-0.09;0.23;-0.42;-4.97;1.33;2.10
3321;-4.05;1.68;8.90;-0.09;0.23;-0.42;-6.37;3.85;-3.43
3330;-4.26;1.44;9.04;-0.09;0.23;-0.42;-7.63;6.72;-6.72
3339;-4.05;1.36;8.90;-0.09;0.24;-0.43;-9.80;8.40;-6.72
3348;-4.10;1.22;8.59;-0.09;0.24;-0.43;-9.66;9.10;-3.57
3356;-4.21;1.20;8.37;-0.09;0.24;-0.43;-6.58;8.61;1.47
3365;-4.24;1.26;8.11;-0.08;0.23;-0.42;-1.05;5.04;5.60
3374;-4.08;1.26;8.32;-0.08;0.23;-0.42;4.34;-17.78;10.36
3383;-3.99;1.49;8.51;-0.08;0.23;-0.42;10.85;-3.29;14.00
3391;-4.11;1.75;8.56;-0.09;0.24;-0.41;15.61;-4.41;14.28
3400;-4.23;1.84;8.82;-0.09;0.24;-0.41;15.89;-4.34;11.69
3409;-4.11;1.82;8.64;-0.09;0.24;-0.41;13.09;-2.66;8.26
3418;-4.08;0.00;8.78;-0.09;0.24;-0.43;7.21;-0.56;2.94
3427;-4.16;1.61;8.74;-0.09;0.24;-0.43;2.10;1.82;-2.31
3436;-4.12;1.52;8.74;-0.09;0.24;-0.43;-0.70;4.97;-5.81
3444;-4.31;1.27;8.51;-0.09;0.24;-0.43;1.33;8.40;-9.24
3453;-4.38;0.88;8.28;-0.09;0.24;-0.43;0.56;7.21;-8.54
3462;-4.62;0.75;8.12;-0.09;0.24;-0.43;-1.75;3.85;-1.33
3471;-4.35;0.75;8.15;-0.08;0.23;-0.42;0.14;-0.07;7.00
3480;-4.16;1.10;8.35;-0.08;0.23;-0.42;5.18;-3.36;11.27
3489;-4.13;1.31;8.46;-0.08;0.23;-0.42;11.97;-4.83;12.95
3497;-4.24;1.67;8.47;-0.08;0.23;-0.42;16.66;-4.69;12.11
3506;-4.28;1.74;8.42;-0.08;0.23;-0.42;16.52;-4.69;8.33
3515;-4.26;1.51;8.46;-0.08;0.23;-0.42;13.93;-3.71;3.85
3524;-4.31;1.39;8.39;-0.08;0.25;-0.43;7.70;-1.75;-1.05
3532;-4.41;1.30;8.49;-0.08;0.25;-0.43;1.26;-0.84;-5.11
3541;-4.56;1.23;8.57;-0.08;0.25;-0.43;-2.87;0.42;-9.94
3550;-4.47;1.06;8.66;-0.09;0.25;-0.43;-5.25;0.70;-12.74
3559;-4.49;0.85;8.66;-0.09;0.25;-0.43;-6.51;1.05;-10.57
3568;-4.49;0.76;8.59;-0.09;0.24;-0.42;-6.44;0.28;-5.04
3576;-4.47;0.87;8.52;-0.09;0.24;-0.42;-2.94;-0.35;-0.84
3585;-4.26;0.98;8.47;-0.09;0.24;-0.42;2.24;-2.10;2.45
3594;-4.48;1.01;8.46;-0.08;0.24;-0.43;6.72;-2.87;3.43
3603;-4.41;1.03;8.48;-0.08;0.24;-0.43;8.54;-4.06;3.78
3612;-4.46;1.04;8.58;-0.08;0.24;-0.43;7.70;-3.50;3.50
3621;-4.61;1.18;8.67;-0.09;0.24;-0.42;5.88;-3.29;1.54
3629;-4.39;1.31;8.70;-0.09;0.24;-0.42;4.83;-3.92;-0.77
3638;-4.29;1.25;8.76;-0.09;0.24;-0.42;4.69;-1.61;-4.20
3647;-4.36;1.16;8.69;-0.09;0.24;-0.43;3.99;2.03;-6.72
3656;-4.29;1.00;8.59;-0.09;0.24;-0.43;1.12;5.60;-9.45
3665;-4.38;0.93;8.45;-0.09;0.24;-0.43;-2.10;7.70;-11.27
3673;-4.37;0.74;8.13;-0.09;0.23;-0.43;-4.20;7.00;-9.94
3682;-4.39;0.67;8.23;-0.09;0.23;-0.43;-7.07;4.62;-8.12
3691;-4.24;0.75;8.46;-0.09;0.23;-0.43;-8.82;2.52;-5.95
3700;-4.13;0.82;8.58;-0.08;0.24;-0.43;-11.13;0.56;-4.97
3709;-4.08;1.00;8.79;-0.08;0.24;-0.43;-10.71;0.28;-5.11
3717;-3.97;1.07;8.98;-0.08;0.24;-0.43;-9.45;0.28;-5.18
3726;-3.85;1.04;8.84;-0.08;0.24;-0.42;-8.05;2.45;-4.83
3735;-3.91;1.15;8.80;-0.08;0.24;-0.42;-4.06;3.85;-4.13
3744;-3.98;1.21;8.78;-0.08;0.24;-0.42;1.89;4.48;-4.62
3753;-3.90;1.13;8.65;-0.07;0.24;-0.43;5.46;4.06;-4.83
3762;-3.98;1.17;8.59;-0.07;0.24;-0.43;6.72;3.85;-5.04
3770;-4.01;1.16;8.48;-0.07;0.24;-0.43;4.97;4.13;-4.90
3779;-3.87;1.13;8.46;-0.07;0.24;-0.43;1.40;3.99;-5.39
3788;-3.78;1.09;8.54;-0.07;0.24;-0.43;-4.20;3.22;-5.60
3797;-3.83;0.99;8.59;-0.07;0.24;-0.43;-8.89;4.06;-5.39
3806;-3.89;0.86;8.61;-0.08;0.24;-0.42;-11.76;3.64;-3.15
3815;-3.83;0.80;8.43;-0.08;0.24;-0.42;-12.25;3.01;2.24
3823;-3.75;0.85;8.53;-0.08;0.23;-0.43;-9.24;1.26;7.70
3832;-3.75;1.08;8.36;-0.07;0.23;-0.43;-4.06;-1.26;11.55
3841;-3.73;1.39;8.59;-0.07;0.23;-0.43;2.31;-4.06;13.58
3850;-3.68;1.51;8.54;-0.07;0.23;-0.41;6.37;-5.46;13.65
3859;-3.64;1.64;8.56;-0.07;0.23;-0.41;6.93;-5.95;12.04
3868;-3.73;1.81;8.57;-0.07;0.23;-0.41;4.27;-6.16;8.89
3876;-3.78;1.84;8.58;-0.07;0.24;-0.43;1.12;-5.25;5.60
3885;-3.79;1.62;8.66;-0.07;0.24;-0.43;-2.66;-4.97;2.17
3894;-3.95;1.51;8.68;-0.07;0.24;-0.43;-4.62;-4.13;-0.56
3903;-4.07;1.52;8.71;-0.08;0.24;-0.42;-6.44;-2.66;-3.15
3912;-4.17;1.40;8.82;-0.08;0.24;-0.42;-8.47;-1.47;-5.32
3920;-4.24;1.41;8.95;-0.08;0.24;-0.42;-10.29;-0.07;-7.21
3929;-4.22;1.19;8.79;-0.08;0.23;-0.44;-10.78;1.47;-9.38
3938;-4.37;1.08;8.78;-0.08;0.23;-0.44;-12.88;1.82;-9.52
3947;-4.52;1.10;8.57;-0.08;0.23;-0.44;-14.00;1.19;-8.19
3956;-4.32;1.10;8.62;-0.08;0.24;-0.42;-13.37;-1.26;-6.30
3964;-4.41;0.98;8.61;-0.08;0.24;-0.42;-10.71;-3.22;-4.06
3973;-4.40;1.05;8.62;-0.08;0.24;-0.42;-6.72;-4.76;-1.75
3982;-4.36;1.26;8.70;-0.07;0.24;-0.43;-5.11;-5.95;1.40
3991;-4.36;1.29;8.73;-0.07;0.24;-0.43;-3.43;-6.37;2.52
4000;-4.39;1.57;8.78;-0.07;0.24;-0.43;-0.14;-6.09;2.52
4009;-4.34;1.79;8.96;-0.07;0.23;-0.42;1.33;-6.72;0.77
4017;-4.27;1.75;8.84;-0.07;0.23;-0.42;0.63;-5.74;-2.03
4026;-4.26;1.69;8.79;-0.07;0.23;-0.42;-1.12;-4.41;-4.06
4035;-4.17;1.69;8.86;-0.08;0.24;-0.42;-3.43;-2.73;-5.04
4044;-3.75;1.54;8.99;-0.08;0.24;-0.42;-5.18;0.70;-6.23
4053;-4.50;1.53;9.04;-0.08;0.24;-0.42;-6.09;1.96;-7.21
4062;-4.16;1.55;8.94;-0.07;0.23;-0.42;-6.44;1.68;-6.09
4070;-4.20;1.46;8.91;-0.07;0.23;-0.42;-4.34;3.01;-5.18
4079;-4.21;1.33;8.89;-0.07;0.23;-0.42;-3.15;2.38;-3.43
4088;-4.06;1.25;8.74;-0.08;0.22;-0.43;17.64;1.96;0.70
4097;-4.16;1.38;8.59;-0.08;0.22;-0.43;5.39;0.28;3.36
4106;-4.00;1.55;8.56;-0.08;0.22;-0.42;10.29;-1.54;3.92
4114;-3.95;1.64;8.47;-0.07;0.23;-0.42;13.23;-2.31;4.06
4123;-4.01;1.57;8.32;-0.07;0.23;-0.42;12.81;-2.31;2.17
4132;-3.91;1.67;8.19;-0.08;0.23;-0.43;10.08;-1.96;0.07
4141;-3.83;1.68;8.21;-0.08;0.23;-0.43;5.53;-1.19;-1.89
4150;-3.86;1.67;8.31;-0.08;0.23;-0.43;0.98;0.49;-3.78
4158;-3.90;1.66;8.56;-0.07;0.22;-0.43;-4.41;0.84;-5.81
4167;-3.95;1.64;8.54;-0.07;0.22;-0.43;-7.07;3.29;-7.00
4176;-3.87;1.62;8.68;-0.07;0.22;-0.43;-7.56;4.69;-8.12
4185;-3.86;1.54;8.55;-0.07;0.24;-0.41;-5.46;5.25;-7.91
4194;-3.80;1.54;8.55;-0.07;0.24;-0.41;-3.43;4.76;-7.42
4202;-3.84;1.51;8.38;-0.07;0.24;-0.41;-0.91;3.15;-7.00
4211;-3.79;1.51;8.38;-0.07;0.24;-0.42;-0.07;0.63;-6.09
4220;-3.79;1.58;8.55;-0.07;0.24;-0.42;-0.77;-1.26;-6.23
4229;-3.73;1.57;8.71;-0.07;0.24;-0.42;-1.33;-2.73;-7.63
4237;-3.56;1.57;8.67;-0.08;0.23;-0.43;-1.05;-2.38;-8.33
4246;-3.67;1.42;8.77;-0.08;0.23;-0.43;-1.12;-0.56;-7.91
4255;-3.68;1.34;8.64;-0.08;0.23;-0.43;-0.35;1.68;-6.65
4264;-3.65;1.26;8.61;-0.07;0.23;-0.44;1.89;2.38;-5.11
4272;-3.57;1.12;8.40;-0.07;0.23;-0.44;4.27;2.03;-2.80
4281;-3.68;1.04;8.18;-0.07;0.23;-0.44;4.97;0.56;-0.77
4290;-3.81;1.04;8.18;-0.07;0.23;-0.42;6.51;-0.28;0.56
4299;-3.80;1.11;8.32;-0.07;0.23;-0.42;7.77;-2.31;1.33
4307;-3.93;1.03;8.35;-0.07;0.23;-0.42;8.05;-3.22;1.68
4316;-3.89;0.96;8.28;-0.07;0.24;-0.43;7.14;-3.08;1.68
4325;-3.96;0.99;8.36;-0.07;0.24;-0.43;6.37;-2.31;0.63
4334;-4.01;1.00;8.29;-0.07;0.24;-0.43;5.11;-1.89;0.21
4342;-3.95;0.91;8.20;-0.07;0.24;-0.42;2.10;-1.19;0.21
4351;-4.04;0.95;8.21;-0.07;0.24;-0.42;-0.21;-1.19;-0.56
4360;-4.14;1.05;8.16;-0.07;0.24;-0.42;-1.54;-1.75;-1.61
4369;-4.13;1.03;8.33;-0.07;0.24;-0.42;-2.10;-2.45;-0.84
4378;-4.16;1.08;8.56;-0.07;0.24;-0.42;-3.71;-3.50;0.21
4387;-4.17;1.18;8.59;-0.07;0.24;-0.42;-4.41;-3.99;0.42
4395;-4.19;1.21;8.70;-0.07;0.24;-0.42;-3.99;-4.83;2.03
4404;-4.13;1.24;8.78;-0.07;0.24;-0.42;-2.24;-5.67;3.22
4413;-4.13;1.26;8.76;-0.07;0.24;-0.42;0.56;-5.53;4.83
4422;-4.08;1.36;8.83;-0.07;0.24;-0.43;3.50;-5.18;5.39
4431;-4.06;1.42;8.83;-0.07;0.24;-0.43;5.04;-4.27;4.41
4439;-4.06;1.45;8.72;-0.07;0.23;-0.43;4.48;-3.57;2.87
4448;-4.11;1.37;8.72;-0.07;0.23;-0.43;2.80;-2.66;1.19
4457;-4.14;1.46;8.53;-0.07;0.23;-0.43;1.05;-2.31;-0.35
4466;-4.22;1.38;8.67;-0.07;0.23;-0.43;-1.61;-2.94;-1.12
4475;-4.28;1.34;8.61;-0.07;0.23;-0.43;-1.54;-3.57;-1.40
4484;-4.26;1.33;8.64;-0.07;0.23;-0.43;0.14;-3.71;-0.42
4492;-4.20;1.23;8.75;-0.08;0.23;-0.45;1.75;-3.29;1.47
4501;-4.33;1.49;8.61;-0.08;0.23;-0.45;2.73;-3.43;2.10
4510;-4.48;1.51;8.53;-0.08;0.23;-0.45;2.38;-3.71;2.66
4519;-4.39;1.52;8.56;-0.07;0.24;-0.42;1.47;-4.06;1.12
4528;-4.48;1.52;8.79;-0.07;0.24;-0.42;0.28;-3.99;0.14
4536;-4.34;1.41;8.99;-0.07;0.24;-0.42;-0.14;-2.66;0.63
4545;-4.32;1.44;8.71;-0.08;0.23;-0.44;2.24;-1.54;1.68
4554;-4.38;1.41;8.81;-0.08;0.23;-0.44;5.32;0.21;1.68
4563;-4.27;1.42;8.53;-0.08;0.23;-0.44;6.02;1.89;1.68
4572;-4.26;1.44;8.26;-0.07;0.24;-0.43;4.34;2.03;0.14
4581;-4.31;1.44;8.31;-0.07;0.24;-0.43;2.87;1.12;-0.14
4589;-4.28;1.36;8.36;-0.07;0.24;-0.43;0.70;-0.98;-0.70
4598;-4.34;1.27;8.47;-0.08;0.24;-0.43;-0.21;-2.80;-0.35
4607;-4.23;1.27;8.59;-0.08;0.24;-0.43;0.42;-4.76;0.98
4616;-4.21;1.18;8.64;-0.08;0.24;-0.43;3.15;-4.90;1.68
4625;-4.10;1.41;8.70;-0.07;0.25;-0.43;4.76;-4.62;1.68
4633;-4.17;1.41;8.71;-0.07;0.25;-0.43;5.25;-3.85;0.35
4642;-4.11;1.30;8.66;-0.07;0.25;-0.43;3.85;-2.73;-1.75
4651;-4.12;1.35;8.48;-0.07;0.25;-0.43;1.47;-1.40;-3.43
4660;-4.20;1.31;8.51;-0.07;0.25;-0.43;0.42;-0.84;-3.08
4668;-4.35;1.34;8.82;-0.07;0.25;-0.43;-0.49;-1.47;-3.57
4677;-4.33;1.39;8.73;-0.07;0.24;-0.43;-0.14;-2.52;-3.43
4686;-4.34;1.24;8.82;-0.07;0.24;-0.43;0.56;-2.31;-3.36
4695;-4.57;1.37;8.84;-0.07;0.24;-0.43;0.14;-1.19;-2.80
4704;-4.41;1.41;8.79;-0.07;0.24;-0.43;-0.07;-0.42;-3.29
4713;-4.44;1.37;8.68;-0.07;0.24;-0.43;0.49;0.14;-3.43
4721;-4.39;1.28;8.86;-0.07;0.24;-0.44;1.26;0.63;-3.36
4730;-4.39;1.15;8.60;-0.08;0.24;-0.44;4.13;0.98;-2.17
4739;-4.21;1.08;8.46;-0.08;0.24;-0.44;8.26;0.77;-0.77
4748;-3.95;1.09;8.13;-0.07;0.23;-0.43;12.67;0.56;1.05
4757;-3.70;1.11;7.87;-0.07;0.23;-0.43;13.58;-0.70;1.26
4765;-3.65;1.18;7.89;-0.07;0.23;-0.43;10.43;-3.85;0.77
4774;-3.27;1.25;8.12;-0.07;0.25;-0.43;2.03;-4.41;0.70
4783;-3.50;1.18;8.41;-0.07;0.25;-0.43;-3.01;-4.69;-2.31
4792;-3.57;1.20;8.65;-0.07;0.25;-0.43;-6.58;-5.67;-4.27
4801;-3.40;1.05;8.64;-0.08;0.25;-0.43;-8.96;-4.97;-4.20
4809;-3.77;1.15;8.74;-0.08;0.25;-0.43;-8.89;-4.76;-2.80
4818;-3.76;1.23;8.69;-0.08;0.25;-0.43;-5.04;-6.23;-0.70
4827;-3.73;1.19;8.73;-0.08;0.25;-0.43;-2.31;-7.42;-0.70
4836;-3.88;1.31;8.70;-0.08;0.25;-0.43;-0.98;-8.12;-3.15
4845;-4.16;1.58;8.87;-0.08;0.25;-0.43;-0.21;-7.84;-1.75
4853;-3.98;1.36;8.89;-0.07;0.24;-0.43;-1.40;-7.35;-2.45
4862;-4.16;1.38;8.90;-0.07;0.24;-0.43;-2.59;-6.16;-4.27
4871;-4.26;1.37;8.89;-0.07;0.24;-0.43;-4.69;-5.81;-4.97
4880;-4.22;1.22;9.01;-0.08;0.25;-0.43;-4.83;-5.67;-4.62
4889;-4.13;1.23;8.74;-0.08;0.25;-0.43;-4.13;-4.48;-3.92
4898;-4.15;1.26;8.69;-0.08;0.25;-0.43;-2.59;-4.20;-3.78
4906;-4.30;1.36;8.54;-0.07;0.24;-0.42;-1.89;-4.62;-4.41
4915;-4.37;1.39;8.36;-0.07;0.24;-0.42;-1.33;-5.53;-4.20
4924;-4.24;1.36;8.44;-0.07;0.24;-0.42;-2.10;-5.88;-4.76
4933;-4.39;1.49;8.46;-0.08;0.24;-0.43;-5.32;-6.79;-5.95
4942;-4.52;1.61;8.89;-0.08;0.24;-0.43;-9.45;-7.00;-8.05
4950;-4.61;1.53;9.33;-0.08;0.24;-0.43;-12.60;-5.11;-9.45
4959;-4.57;1.38;9.56;-0.08;0.24;-0.43;-12.60;-2.17;-9.31
4968;-4.41;1.28;9.55;-0.08;0.24;-0.43;-9.52;1.54;-7.91
4977;-4.52;1.33;9.34;-0.08;0.24;-0.43;-2.94;4.27;-5.67
4986;-4.55;1.26;8.94;-0.07;0.23;-0.43;4.76;4.34;-3.78
4994;-4.34;1.37;8.64;-0.07;0.23;-0.43;7.49;3.36;-2.66
5003;-4.34;1.43;8.33;-0.07;0.23;-0.43;6.23;2.94;-3.15
5012;-4.23;1.31;8.41;-0.07;0.23;-0.42;4.76;2.59;-3.57
5021;-4.16;1.41;8.35;-0.07;0.23;-0.42;2.73;2.45;-4.90
5030;-4.12;1.24;8.26;-0.08;0.24;-0.43;1.33;2.66;-5.53
5038;-4.08;1.13;8.38;-0.08;0.24;-0.43;1.54;2.94;-5.39
5047;-3.88;1.06;8.26;-0.08;0.24;-0.43;2.31;2.24;-4.90
5056;-3.78;0.98;8.13;-0.08;0.23;-0.42;3.71;1.05;-3.08
5065;-3.70;1.08;8.09;-0.08;0.23;-0.42;4.83;0.21;-1.54
5073;-3.75;0.97;8.10;-0.08;0.23;-0.42;6.09;-0.63;-0.28
5082;-3.89;1.20;7.86;-0.07;0.24;-0.43;6.30;-1.68;-1.05
5091;-4.06;1.21;7.90;-0.07;0.24;-0.43;3.92;-3.15;-2.87
5100;-4.10;1.28;8.13;-0.07;0.24;-0.43;-1.47;-4.97;-5.04
5109;-4.03;1.24;8.70;-0.07;0.23;-0.42;-7.00;-4.76;-5.88
5117;-4.13;1.25;8.93;-0.07;0.23;-0.42;-8.12;-4.76;-6.02
5126;-4.11;1.08;9.22;-0.07;0.23;-0.42;-4.90;-3.64;-4.55
5135;-4.08;1.04;9.28;-0.07;0.23;-0.43;0.49;-1.54;-1.33
5144;-3.96;1.03;9.26;-0.07;0.23;-0.43;4.83;0.35;1.54
5153;-3.84;1.13;9.18;-0.07;0.23;-0.43;8.19;1.82;3.15
5161;-3.66;1.14;8.94;-0.08;0.23;-0.43;8.40;2.87;4.41
5170;-3.55;1.16;8.85;-0.08;0.23;-0.43;6.51;3.57;5.39
5179;-3.50;1.21;8.79;-0.08;0.23;-0.43;4.62;3.29;4.90
5188;-3.59;1.16;8.82;-0.08;0.24;-0.44;3.43;3.22;3.85
5197;-3.71;1.21;8.69;-0.08;0.24;-0.44;3.22;2.24;2.45
5205;-3.69;1.04;8.61;-0.08;0.24;-0.44;2.38;1.75;1.96
5214;-3.89;1.00;8.48;-0.07;0.24;-0.43;1.40;0.98;1.68
5223;-3.82;1.08;8.46;-0.07;0.24;-0.43;1.12;0.42;2.52
5232;-3.96;1.06;8.38;-0.07;0.24;-0.43;0.77;-0.98;3.29
5241;-3.97;1.07;8.35;-0.07;0.25;-0.43;0.84;-0.84;4.41
5250;-4.13;1.13;8.42;-0.07;0.25;-0.43;0.42;-0.98;5.11
5258;-4.20;1.21;8.46;-0.07;0.25;-0.43;0.91;-2.24;5.60
5267;-4.13;1.08;8.38;-0.07;0.24;-0.44;0.98;-2.59;5.67
5276;-4.13;1.22;8.52;-0.07;0.24;-0.44;-0.84;-2.94;5.32
5285;-4.44;1.41;8.46;-0.07;0.24;-0.44;-2.66;-3.15;4.48
5294;-4.40;1.40;8.64;-0.07;0.24;-0.43;-3.92;-3.50;3.78
5303;-4.45;1.41;8.80;-0.07;0.24;-0.43;-4.48;-3.64;3.08
5311;-4.47;1.35;8.90;-0.07;0.24;-0.43;-3.15;-2.03;2.80
5320;-4.51;1.37;8.94;-0.08;0.24;-0.43;-0.49;-0.56;3.22
5329;-4.37;1.31;8.79;-0.08;0.24;-0.43;2.17;1.68;4.34
5338;-4.31;1.29;8.68;-0.08;0.24;-0.43;4.48;2.80;4.97
5347;-4.24;1.38;8.53;-0.08;0.24;-0.43;3.01;2.38;4.20
5356;-4.16;1.39;8.42;-0.08;0.24;-0.43;0.84;2.24;3.78
5364;-4.26;1.44;8.67;-0.07;0.24;-0.43;-2.03;1.40;2.87
5373;-4.31;1.46;8.62;-0.07;0.24;-0.43;-4.27;0.63;1.89
5382;-4.28;1.35;8.74;-0.07;0.24;-0.43;-4.83;0.21;1.75
5391;-4.40;1.41;8.84;-0.07;0.24;-0.43;-5.18;1.12;2.03
5400;-4.48;1.42;9.09;-0.07;0.24;-0.43;-4.62;1.47;2.10
5408;-4.40;1.41;9.06;-0.07;0.24;-0.43;-1.05;2.31;2.73
5417;-4.29;1.51;9.05;-0.07;0.25;-0.43;3.64;3.15;3.15
5426;-4.13;1.46;8.83;-0.07;0.25;-0.43;6.02;2.94;3.01
5435;-4.03;1.57;8.71;-0.07;0.25;-0.43;5.53;3.15;1.89
5444;-3.94;1.65;8.54;-0.07;0.25;-0.43;3.43;3.08;0.35
5452;-3.90;1.48;8.52;-0.07;0.25;-0.43;1.26;2.94;-1.68
5461;-3.85;1.37;8.59;-0.07;0.25;-0.43;0.07;2.03;-2.17
5470;-3.95;1.34;8.43;-0.08;0.25;-0.42;-0.28;1.54;-1.89
5479;-4.13;1.17;8.48;-0.08;0.25;-0.42;-0.28;1.54;-0.63
5488;-4.13;1.11;8.46;-0.08;0.25;-0.42;0.49;1.19;0.77
5496;-4.11;1.11;8.61;-0.07;0.24;-0.45;1.40;0.42;1.61
5505;-3.96;1.13;8.67;-0.07;0.24;-0.45;1.75;-0.42;2.87
5514;-3.85;1.27;8.58;-0.07;0.24;-0.45;2.24;-0.84;2.73
5523;-3.60;1.36;8.71;-0.07;0.24;-0.44;2.66;-0.21;0.91
5531;-3.61;1.44;8.82;-0.07;0.24;-0.44;1.47;1.19;-1.47
5540;-3.79;1.40;8.71;-0.07;0.24;-0.44;0.28;0.63;-3.71
5549;-3.65;1.32;8.74;-0.08;0.24;-0.43;0.00;1.33;-4.34
5558;-3.72;1.26;8.59;-0.08;0.24;-0.43;-0.07;1.54;-4.48
5567;-3.91;1.28;8.67;-0.08;0.24;-0.43;-1.12;1.05;-3.92
5576;-3.72;1.17;8.68;-0.07;0.25;-0.44;-0.70;0.77;-1.75
5584;-3.83;1.00;8.77;-0.07;0.25;-0.44;1.61;1.33;-0.56
5593;-3.97;1.08;8.74;-0.07;0.25;-0.44;3.43;1.96;1.19
5602;-3.98;0.99;8.75;-0.07;0.24;-0.42;2.38;2.03;2.24
5611;-3.96;0.98;8.74;-0.07;0.24;-0.42;3.01;2.17;3.15
5620;-4.04;1.08;8.89;-0.07;0.24;-0.42;3.22;3.78;2.87
5628;-4.17;1.11;8.82;-0.07;0.24;-0.42;2.52;3.78;1.82
5637;-4.02;1.04;8.87;-0.07;0.24;-0.42;1.26;4.41;0.84
5646;-4.08;0.90;8.97;-0.07;0.25;-0.43;0.70;6.58;-0.28
5655;-4.04;0.89;8.93;-0.07;0.25;-0.43;1.12;8.19;-0.42
5664;-3.97;0.78;8.97;-0.07;0.25;-0.43;2.17;9.45;0.21
5672;-4.06;0.69;8.74;-0.07;0.25;-0.43;3.08;10.43;1.19
5681;-4.03;0.74;8.71;-0.07;0.25;-0.43;3.92;10.29;3.01
5690;-4.13;0.80;8.70;-0.07;0.25;-0.43;5.39;9.52;4.27
5699;-4.22;0.88;8.59;-0.07;0.25;-0.43;5.67;8.19;5.25
5708;-4.09;0.67;8.59;-0.07;0.25;-0.43;6.09;7.00;5.81
5717;-3.98;0.52;8.44;-0.07;0.25;-0.43;7.98;6.72;5.67
5725;-3.56;0.55;8.37;-0.06;0.25;-0.44;7.28;3.01;4.34
5734;-3.85;0.40;8.32;-0.06;0.25;-0.44;6.30;7.84;8.12
5743;-4.15;0.50;8.27;-0.06;0.25;-0.44;4.90;4.48;6.86
5752;-4.07;0.62;8.33;-0.06;0.25;-0.44;3.15;4.41;7.56
5761;-4.13;0.70;8.64;-0.06;0.25;-0.44;0.77;4.34;7.98
5770;-4.14;0.74;8.71;-0.06;0.25;-0.44;-0.84;2.87;8.61
5778;-4.09;0.97;9.16;-0.06;0.25;-0.44;-0.63;2.87;8.61
5787;-3.98;1.03;9.17;-0.06;0.25;-0.44;0.42;3.50;7.63
5796;-3.73;0.98;9.00;-0.06;0.25;-0.44;1.26;4.90;6.86
5805;-3.77;0.95;8.99;-0.06;0.26;-0.45;1.82;6.30;6.16
5814;-3.93;1.07;8.77;-0.06;0.26;-0.45;0.84;7.28;5.53
5822;-3.96;0.95;8.77;-0.06;0.26;-0.45;-1.75;5.53;5.74
5831;-3.86;0.90;8.73;-0.07;0.25;-0.44;-2.87;4.48;7.00
5840;-4.04;0.93;8.92;-0.07;0.25;-0.44;-3.57;3.92;8.40
5849;-4.00;0.99;8.90;-0.07;0.25;-0.44;-3.57;4.13;9.10
5858;-3.88;1.07;9.03;-0.07;0.24;-0.44;-2.17;4.76;8.82
5866;-3.85;1.15;9.06;-0.07;0.24;-0.44;-1.89;5.53;8.05
5875;-3.78;1.30;9.00;-0.07;0.24;-0.44;-2.17;5.74;6.44
5884;-3.54;1.29;9.02;-0.06;0.25;-0.44;-2.10;5.95;5.39
5893;-3.42;1.21;9.04;-0.06;0.25;-0.44;-1.33;6.51;3.99
5902;-3.41;1.22;8.85;-0.06;0.25;-0.44;-0.28;5.53;3.36
5910;-3.47;1.11;8.64;-0.06;0.25;-0.44;0.28;4.97;3.22
5919;-3.44;1.18;8.61;-0.06;0.25;-0.44;-1.05;2.73;3.64
5928;-3.40;1.14;8.54;-0.07;0.25;-0.43;-3.92;1.12;4.20
5937;-3.51;1.15;8.71;-0.07;0.25;-0.43;-5.81;-0.35;3.71
5945;-3.70;1.25;8.74;-0.07;0.25;-0.43;-6.44;-0.63;2.87
5954;-4.13;1.13;8.75;-0.07;0.25;-0.43;-7.63;-0.28;3.22
5963;-4.02;1.08;8.89;-0.07;0.25;-0.43;-8.54;1.47;3.85
5972;-3.98;1.10;8.87;-0.07;0.25;-0.43;-9.31;3.78;3.57
5981;-3.93;1.13;8.94;-0.06;0.25;-0.43;-8.96;4.20;3.15
5990;-3.85;1.18;8.84;-0.06;0.25;-0.43;-5.32;3.78;4.69
5998;-3.81;1.09;8.73;-0.06;0.25;-0.43;-1.82;2.52;6.23
6007;-3.78;1.18;8.62;-0.06;0.25;-0.43;1.12;-0.70;7.63
6016;-3.74;1.26;8.51;-0.06;0.25;-0.43;4.62;-2.73;8.12
6025;-3.86;1.26;8.41;-0.06;0.25;-0.43;6.44;-3.22;7.70
6034;-4.01;1.34;8.41;-0.07;0.26;-0.42;4.97;-3.99;7.07
6042;-4.08;1.34;8.48;-0.07;0.26;-0.42;2.17;-4.13;5.53
6051;-4.11;1.25;8.58;-0.07;0.26;-0.42;-1.96;-4.48;3.57
6060;-4.14;1.26;8.78;-0.07;0.25;-0.43;-6.16;-4.27;1.75
6069;-4.07;1.16;8.92;-0.07;0.25;-0.43;-8.19;-2.87;0.98
6078;-4.13;1.18;10.99;-0.07;0.25;-0.43;-7.98;-0.42;0.70
6086;-4.08;1.01;9.09;-0.06;0.24;-0.43;-6.79;0.84;1.54
6095;-3.98;0.93;9.11;-0.06;0.24;-0.43;-4.06;2.38;4.97
6104;-3.85;0.88;9.02;-0.06;0.24;-0.43;0.21;3.22;7.14
6113;-3.82;0.91;8.79;-0.06;0.24;-0.43;3.64;2.03;8.68
6122;-3.80;0.93;8.76;-0.06;0.24;-0.43;6.30;0.91;9.59
6130;-3.74;0.95;8.71;-0.06;0.24;-0.43;5.53;1.40;8.47
6139;-3.91;1.17;8.73;-0.07;0.25;-0.44;0.70;0.91;6.23
6148;-3.70;1.17;8.71;-0.07;0.25;-0.44;-4.34;0.21;2.66
6157;-3.76;1.11;8.80;-0.07;0.25;-0.44;-8.05;1.33;-1.05
6166;-3.78;0.91;8.94;-0.07;0.24;-0.43;-12.81;1.75;-2.10
6174;-3.70;0.82;8.97;-0.07;0.24;-0.43;-15.33;2.73;-1.61
6183;-3.70;0.78;9.07;-0.07;0.24;-0.43;-14.00;4.76;-0.42
6192;-3.78;0.67;8.99;-0.06;0.25;-0.43;-10.92;4.76;0.49
6201;-3.77;0.64;8.99;-0.06;0.25;-0.43;-6.44;3.64;2.38
6210;-3.72;0.58;8.94;-0.06;0.25;-0.44;-0.70;2.87;4.41
6219;-3.95;0.75;8.99;-0.07;0.25;-0.44;3.15;1.68;5.67
6227;-4.01;0.70;8.92;-0.07;0.25;-0.44;3.85;0.77;7.28
6236;-4.00;0.92;8.94;-0.06;0.25;-0.43;3.29;-0.35;7.77
6245;-3.85;1.02;8.93;-0.06;0.25;-0.43;1.82;-1.75;6.65
6254;-3.97;1.09;8.95;-0.06;0.25;-0.43;0.28;-2.03;3.78
6263;-3.85;1.11;8.91;-0.06;0.24;-0.44;-0.98;-1.19;0.70
6272;-3.75;1.21;8.92;-0.06;0.24;-0.44;-1.96;-0.91;-1.96
6281;-3.70;1.06;9.17;-0.06;0.24;-0.44;-2.24;0.70;-2.52
6289;-3.94;0.89;9.04;-0.07;0.25;-0.44;-1.54;2.17;-1.47
6298;-4.18;0.68;8.70;-0.07;0.25;-0.44;-0.49;3.85;1.12
6307;-3.78;0.65;8.60;-0.07;0.25;-0.44;2.59;4.48;3.99
6316;-3.88;0.68;8.61;-0.06;0.24;-0.45;5.74;4.83;5.60
6325;-4.05;0.62;8.40;-0.06;0.24;-0.45;7.77;2.80;6.72
6333;-3.93;0.74;8.31;-0.06;0.24;-0.45;8.82;1.47;8.75
6342;-3.75;0.82;8.41;-0.06;0.24;-0.44;9.59;0.49;8.96
6351;-3.63;0.90;8.40;-0.06;0.24;-0.44;10.15;0.35;7.42
6360;-3.67;1.02;8.28;-0.06;0.24;-0.44;8.82;-0.56;4.69
6369;-3.50;1.00;8.28;-0.07;0.25;-0.45;4.34;0.35;2.10
6377;-3.78;1.08;8.18;-0.07;0.25;-0.45;-0.42;0.98;-1.89
6386;-3.74;0.88;8.25;-0.07;0.25;-0.45;-6.58;1.12;-3.29
6395;-3.63;0.77;8.43;-0.07;0.24;-0.44;-10.92;2.03;-2.94
6404;-4.03;0.70;8.64;-0.07;0.24;-0.44;-11.90;1.75;-2.59
6413;-3.93;0.70;8.52;-0.07;0.24;-0.44;-10.50;0.70;0.28
6421;-3.88;0.76;8.73;-0.07;0.24;-0.44;-6.93;0.42;3.29
6430;-3.99;0.83;8.67;-0.07;0.24;-0.44;-2.87;0.00;4.69
6439;-4.04;1.00;8.80;-0.07;0.24;-0.44;-2.17;-1.33;5.32
6448;-3.91;1.07;8.67;-0.07;0.25;-0.43;-2.73;-2.87;6.02
6457;-3.95;1.18;8.91;-0.07;0.25;-0.43;-4.97;-3.50;4.90
6466;-3.94;1.33;8.99;-0.07;0.25;-0.43;-7.14;-3.99;3.08
6474;-3.91;1.33;9.23;-0.07;0.24;-0.45;-8.68;-3.01;0.49
6483;-3.75;1.44;9.30;-0.07;0.24;-0.45;-9.17;-0.63;-2.31
6492;-3.87;1.47;9.30;-0.07;0.24;-0.43;-10.78;2.24;-4.27
6501;-3.89;1.23;9.25;-0.07;0.24;-0.43;-13.16;3.64;-4.90
6509;-3.93;1.08;9.04;-0.07;0.24;-0.43;-14.91;5.18;-3.92
6518;-4.05;1.01;9.00;-0.07;0.25;-0.44;-14.21;3.92;-2.38
6527;-4.00;0.79;8.87;-0.07;0.25;-0.44;-10.50;1.61;0.84
6536;-4.13;0.89;8.84;-0.07;0.25;-0.44;-4.97;-0.21;4.27
6545;-4.03;0.88;9.03;-0.07;0.24;-0.43;-0.98;-2.38;7.21
6553;-3.83;1.09;9.02;-0.07;0.24;-0.43;0.70;-3.22;8.68
6562;-3.85;1.25;8.89;-0.07;0.24;-0.43;0.35;-3.64;8.05
6571;-3.87;1.45;8.89;-0.06;0.24;-0.42;-1.26;-3.29;5.81
6580;-3.85;1.41;9.04;-0.06;0.24;-0.42;-2.80;-3.50;3.22
6589;-3.72;1.56;9.07;-0.06;0.24;-0.42;-4.13;-2.52;1.47
6598;-3.91;1.40;9.00;-0.06;0.24;-0.44;-5.67;-0.35;-0.77
6606;-3.95;1.27;8.87;-0.06;0.24;-0.44;-8.19;1.96;-2.17
6615;-4.10;1.08;8.74;-0.06;0.24;-0.44;-9.80;3.01;-2.45
6624;-4.11;1.03;8.70;-0.06;0.24;-0.42;-9.38;2.59;-1.12
6633;-4.06;0.98;8.62;-0.06;0.24;-0.42;-6.16;0.56;1.54
6641;-3.95;0.88;8.55;-0.06;0.24;-0.42;-1.96;-1.89;4.27
6650;-4.01;1.03;8.62;-0.06;0.24;-0.43;1.68;-3.78;6.86
6659;-3.76;1.22;8.71;-0.06;0.24;-0.43;4.06;-4.34;7.49
6668;-3.77;1.28;8.69;-0.06;0.24;-0.43;4.41;-4.06;5.46
6677;-3.79;1.34;8.61;-0.07;0.24;-0.42;2.17;-3.78;3.36
6685;-3.82;1.28;8.61;-0.07;0.24;-0.42;-0.49;-3.22;1.12
6694;-3.67;1.23;8.62;-0.07;0.24;-0.42;-1.33;-2.31;-0.35
6703;-3.85;1.21;8.58;-0.07;0.24;-0.43;-1.40;-1.75;-1.96
6712;-3.84;1.33;8.66;-0.07;0.24;-0.43;-1.19;-1.68;-2.03
6721;-3.75;1.40;8.60;-0.07;0.24;-0.43;-1.26;-1.68;-1.75
6729;-3.78;1.28;8.47;-0.06;0.24;-0.43;-0.70;-1.68;-1.19
6738;-3.69;1.26;8.38;-0.06;0.24;-0.43;0.07;-2.52;-0.42
6747;-3.59;1.21;8.33;-0.06;0.24;-0.43;1.05;-3.71;0.63
6756;-3.52;1.12;8.10;-0.07;0.24;-0.43;2.17;-4.76;1.54
6765;-3.51;1.15;8.13;-0.07;0.24;-0.43;2.24;-6.30;0.56
6773;-3.55;1.17;8.12;-0.07;0.24;-0.43;0.49;-7.91;-0.14
6782;-3.70;1.14;8.15;-0.07;0.24;-0.44;-3.15;-9.10;-2.52
6791;-3.63;1.13;8.37;-0.07;0.24;-0.44;-7.63;-9.59;-4.41
6800;-3.65;0.93;8.48;-0.07;0.24;-0.43;-12.11;-8.19;-5.74
6809;-3.74;1.13;8.67;-0.07;0.24;-0.43;-13.72;-6.44;-6.44
6817;-3.75;1.09;8.79;-0.07;0.24;-0.43;-11.13;-5.25;-5.88
6826;-3.85;1.21;8.65;-0.07;0.23;-0.44;-7.35;-4.48;-5.74
6835;-3.96;1.21;8.63;-0.07;0.23;-0.44;-2.87;-4.48;-5.18
6844;-3.96;1.23;8.59;-0.07;0.23;-0.44;-0.91;-5.04;-3.99
6853;-4.03;1.36;8.56;-0.07;0.24;-0.43;-0.98;-5.88;-3.01
6862;-4.02;1.33;8.59;-0.07;0.24;-0.43;-0.14;-6.65;-2.80
6870;-4.13;1.36;8.59;-0.07;0.24;-0.43;0.49;-6.79;-2.87
6879;-3.99;1.31;8.58;-0.07;0.23;-0.43;0.98;-6.51;-2.87
6888;-4.01;1.32;8.59;-0.07;0.23;-0.43;1.26;-6.09;-2.94
6897;-4.01;1.25;8.74;-0.07;0.23;-0.43;1.54;-6.23;-3.57
6906;-4.03;1.15;8.78;-0.07;0.23;-0.43;1.68;-4.97;-3.92
6914;-4.07;1.01;8.76;-0.07;0.23;-0.43;0.49;-4.20;-3.43
6923;-4.21;1.08;8.76;-0.07;0.23;-0.43;1.12;-4.34;-3.36
6932;-4.24;1.11;8.77;-0.08;0.24;-0.43;2.38;-3.99;-2.87
6941;-4.20;0.98;8.73;-0.08;0.24;-0.43;2.52;-3.99;-2.10
6950;-4.08;1.07;8.65;-0.08;0.24;-0.43;2.31;-3.71;-1.33
6958;-4.12;1.14;8.69;-0.08;0.24;-0.41;4.48;-3.57;-0.70
6967;-4.01;1.20;8.68;-0.08;0.24;-0.41;7.49;-2.94;-0.28
6976;-4.09;1.23;8.58;-0.08;0.24;-0.41;9.31;-2.59;-0.21
6985;-4.03;1.36;8.42;-0.08;0.24;-0.42;9.31;-2.31;-0.91
6994;-4.19;1.34;8.48;-0.08;0.24;-0.42;6.51;-2.66;-2.24
7003;-4.03;1.34;8.57;-0.08;0.24;-0.42;3.92;-2.80;-3.22
7011;-4.08;1.41;8.56;-0.07;0.25;-0.43;0.28;-2.24;-3.85
7020;-4.06;1.22;8.61;-0.07;0.25;-0.43;-3.64;-1.96;-4.90
7029;-3.94;1.27;8.59;-0.07;0.25;-0.43;-6.16;-0.91;-5.39
7038;-4.00;1.30;8.58;-0.07;0.24;-0.42;-8.89;0.28;-6.72
7047;-3.91;1.18;8.45;-0.07;0.24;-0.42;-10.71;-0.63;-7.00
7056;-3.93;1.26;8.36;-0.07;0.24;-0.42;-11.27;-2.10;-7.28
7064;-3.83;1.48;8.39;-0.07;0.24;-0.42;-9.94;-3.64;-7.07
7073;-3.81;1.63;8.51;-0.07;0.24;-0.42;-7.28;-5.04;-7.70
7082;-3.70;1.61;8.50;-0.07;0.24;-0.43;-4.62;-5.60;-8.54
7091;-3.96;1.66;8.72;-0.08;0.24;-0.43;-2.31;-5.46;-9.94
7100;-4.08;1.62;8.70;-0.08;0.24;-0.43;-2.24;-5.11;-10.92
7109;-4.29;1.48;8.90;-0.07;0.23;-0.43;-4.90;-3.64;-12.18
7117;-4.15;1.26;8.96;-0.07;0.23;-0.43;-8.12;-2.17;-12.60
7126;-4.19;1.21;8.89;-0.07;0.23;-0.43;-8.89;-1.19;-12.11
7135;-4.03;1.05;8.68;-0.08;0.23;-0.42;-8.19;-1.54;-10.29
7144;-4.08;1.01;8.59;-0.08;0.23;-0.42;-5.67;-1.54;-8.47
7153;-4.02;0.96;8.30;-0.08;0.23;-0.42;-4.97;-2.31;-7.14
7162;-4.11;1.18;8.31;-0.07;0.23;-0.44;-4.90;-2.59;-6.58
7170;-4.16;1.33;8.48;-0.07;0.23;-0.44;-5.67;-3.99;-6.72
7179;-4.08;1.62;8.68;-0.07;0.23;-0.44;-5.67;-4.27;-8.05
7188;-4.39;1.67;8.84;-0.07;0.23;-0.42;-3.64;-2.73;-9.94
7197;-4.44;1.76;9.05;-0.07;0.23;-0.42;-1.12;-0.77;-10.78
7206;-4.31;1.67;8.93;-0.07;0.23;-0.42;1.68;1.12;-10.71
7215;-4.31;1.74;8.78;-0.07;0.23;-0.42;4.41;2.59;-9.24
7223;-4.27;1.67;8.51;-0.07;0.23;-0.42;7.07;2.38;-6.93
7232;-4.29;1.49;8.50;-0.07;0.23;-0.42;9.66;1.33;-4.76
7241;-4.13;1.49;8.26;-0.07;0.23;-0.42;10.15;-0.14;-3.29
7250;-4.17;1.44;8.13;-0.07;0.23;-0.42;7.56;-2.45;-2.59
7258;-4.34;1.34;7.98;-0.07;0.23;-0.42;2.94;-4.76;-2.03
7267;-4.36;1.45;8.16;-0.09;0.23;-0.43;-1.40;-7.00;-1.61
7276;-4.47;1.44;8.33;-0.09;0.23;-0.43;-3.08;-7.84;-2.31
7285;-4.21;1.50;8.43;-0.09;0.23;-0.43;-0.70;-7.84;-1.33
7294;-3.99;1.56;8.62;-0.07;0.23;-0.43;4.55;-6.86;-0.56
7302;-4.01;1.60;8.62;-0.07;0.23;-0.43;8.61;-5.18;-1.19
7311;-4.02;1.73;8.66;-0.07;0.23;-0.43;8.54;-3.50;-3.64
7320;-4.12;1.95;8.67;-0.08;0.23;-0.43;5.60;-1.96;-7.14
7329;-4.26;1.72;8.54;-0.08;0.23;-0.43;1.19;-1.89;-9.94
7338;-4.25;1.39;8.43;-0.08;0.23;-0.43;-3.99;-1.96;-10.22
7347;-4.27;1.21;8.44;-0.08;0.23;-0.43;-7.35;-1.82;-9.17
7355;-4.13;1.24;8.36;-0.08;0.23;-0.43;-6.79;-2.87;-7.70
7364;-4.11;1.18;8.44;-0.08;0.23;-0.43;-3.85;-4.06;-7.28
7373;-4.13;1.18;8.56;-0.07;0.23;-0.43;-2.94;-4.76;-7.56
7382;-4.06;1.36;8.69;-0.07;0.23;-0.43;-3.78;-4.90;-7.63
7391;-3.99;1.34;8.71;-0.08;0.23;-0.43;-3.71;-4.13;-7.70
7400;-3.93;1.35;8.70;-0.08;0.23;-0.43;-1.89;-2.66;-7.42
7409;-3.96;1.39;8.61;-0.08;0.23;-0.43;3.36;-2.66;-6.23
7417;-4.02;1.42;8.48;-0.07;0.23;-0.43;6.86;-2.24;-5.18
7426;-4.16;1.38;8.41;-0.07;0.23;-0.43;9.73;-2.94;-4.90
7435;-4.21;1.32;8.41;-0.07;0.23;-0.43;9.31;-2.80;-4.83
7444;-4.08;1.47;8.51;-0.07;0.24;-0.43;9.31;-3.50;-5.25
7453;-4.08;1.29;8.58;-0.07;0.24;-0.43;8.82;-3.01;-6.23
7462;-3.97;1.25;8.50;-0.07;0.24;-0.43;7.70;-3.85;-7.98
7470;-4.07;1.31;8.46;-0.06;0.23;-0.42;7.98;-2.87;-8.26
7479;-3.91;1.13;8.28;-0.06;0.23;-0.42;8.61;-3.22;-9.38
7488;-4.00;1.11;8.25;-0.06;0.23;-0.42;6.86;-3.99;-9.24
7497;-4.01;1.03;8.36;-0.07;0.24;-0.43;3.85;-4.13;-10.29
7506;-4.13;0.98;8.57;-0.07;0.24;-0.43;-1.33;-4.41;-11.06
7515;-4.26;1.14;8.79;-0.07;0.24;-0.43;-6.51;-3.71;-9.73
7523;-4.09;1.26;8.96;-0.08;0.24;-0.44;-4.55;-3.36;-7.77
7532;-4.21;1.45;9.12;-0.08;0.24;-0.44;0.70;-1.19;-6.51
7541;-4.19;1.61;9.10;-0.08;0.24;-0.44;5.25;-1.12;-5.39
7550;-4.20;1.53;9.33;-0.06;0.24;-0.43;10.85;0.49;-3.36
7559;-4.28;1.69;9.10;-0.06;0.24;-0.43;17.57;0.63;-1.75
7567;-4.21;1.67;8.98;-0.06;0.24;-0.43;23.10;-0.21;-0.49
7576;-4.19;1.54;8.66;-0.06;0.24;-0.42;24.85;-1.96;-0.21
7585;-4.19;1.59;8.62;-0.06;0.24;-0.42;20.65;-2.17;-1.89
7594;-4.13;1.45;8.66;-0.06;0.24;-0.42;12.81;-2.66;-4.55
7603;-4.23;1.43;8.61;-0.07;0.25;-0.44;4.41;-2.52;-7.98
7611;-4.34;1.24;8.46;-0.07;0.25;-0.44;-5.67;-2.94;-9.66
7620;-3.98;1.08;8.41;-0.07;0.25;-0.44;-12.04;-3.29;-11.27
7629;-3.93;1.02;8.55;-0.07;0.25;-0.43;-17.08;-4.34;-12.81
7638;-4.10;0.90;8.41;-0.07;0.25;-0.43;-20.23;-4.97;-12.11
7647;-4.34;0.98;8.46;-0.08;0.24;-0.43;-20.37;-4.48;-10.64
7656;-4.25;1.06;8.68;-0.08;0.24;-0.43;-17.22;-3.15;-8.05
7664;-4.26;1.16;8.60;-0.08;0.24;-0.43;-10.08;-2.10;-5.74
7673;-4.49;1.31;8.46;-0.07;0.23;-0.43;-4.48;-2.66;-4.13
7682;-4.31;1.51;8.55;-0.07;0.23;-0.43;-0.77;-3.50;-2.80
7691;-4.37;1.40;8.70;-0.07;0.23;-0.43;1.19;-3.08;-2.73
7700;-4.38;1.40;8.70;-0.07;0.24;-0.43;1.75;-3.08;-2.94
7709;-4.21;1.41;8.79;-0.07;0.24;-0.43;1.47;-1.89;-3.22
7718;-4.13;1.44;8.65;-0.07;0.24;-0.43;1.26;-0.49;-3.43
7726;-4.17;1.59;8.48;-0.07;0.24;-0.43;0.91;-0.14;-3.43
7735;-4.24;1.69;8.36;-0.07;0.24;-0.43;-0.42;0.07;-2.87
7744;-4.35;1.68;8.38;-0.07;0.24;-0.43;-1.68;-0.84;-2.73
7753;-4.13;1.61;8.16;-0.07;0.24;-0.42;-2.52;-1.89;-3.36
7762;-4.09;1.60;8.51;-0.07;0.24;-0.42;-4.97;-2.66;-3.01
7770;-4.16;1.56;8.44;-0.07;0.24;-0.42;-6.58;-2.94;-3.22
7779;-4.04;1.51;8.76;-0.07;0.24;-0.43;-6.02;-2.87;-2.94
7788;-4.08;1.61;8.58;-0.07;0.24;-0.43;-3.85;-2.24;-2.31
7797;-4.04;1.66;8.71;-0.07;0.24;-0.43;0.49;-1.26;-1.19
7806;-4.03;1.63;8.59;-0.07;0.23;-0.43;5.25;-1.47;-1.47
7815;-4.09;1.60;8.54;-0.07;0.23;-0.43;4.41;-2.03;-1.68
7823;-4.03;1.67;8.38;-0.07;0.23;-0.43;1.33;-1.47;-2.52
7832;-4.09;1.73;8.46;-0.07;0.23;-0.42;-2.10;-1.75;-3.99
7841;-4.10;1.86;8.41;-0.07;0.23;-0.42;-5.46;-0.84;-5.60
7850;-4.26;1.67;8.40;-0.07;0.23;-0.42;-9.94;-0.70;-9.03
7859;-4.24;1.65;8.40;-0.07;0.24;-0.41;-16.31;0.84;-11.27
7867;-4.27;1.64;8.13;-0.07;0.24;-0.41;-19.32;0.56;-12.04
7876;-4.33;1.56;8.26;-0.07;0.24;-0.41;-18.13;-0.91;-11.13
7885;-4.26;1.34;8.43;-0.07;0.24;-0.44;-15.40;-2.38;-9.38
7894;-4.27;1.31;8.15;-0.07;0.24;-0.44;-9.17;-3.08;-5.95
7903;-4.26;1.29;8.28;-0.07;0.24;-0.44;-3.01;-3.71;-4.27
7911;-4.24;1.28;8.28;-0.07;0.24;-0.42;-0.07;-3.99;-2.59
7920;-4.06;1.59;8.40;-0.07;0.24;-0.42;0.21;-3.64;-1.89
7929;-3.98;2.11;8.49;-0.06;0.23;-0.43;-6.44;-1.82;-4.62
7938;-4.01;2.71;8.67;-0.06;0.23;-0.43;-19.32;-0.14;-10.71
7947;-4.03;2.84;8.49;-0.06;0.23;-0.43;-36.12;0.91;-20.16
7955;-4.21;2.42;8.56;-0.06;0.23;-0.42;-49.49;1.05;-26.46
7964;-4.31;2.04;8.65;-0.06;0.23;-0.42;-49.84;0.70;-26.88
7973;-4.47;1.72;8.69;-0.06;0.23;-0.42;-39.76;-0.98;-20.30
7982;-4.52;1.62;8.84;-0.07;0.23;-0.43;-23.38;-2.24;-13.51
7991;-4.27;1.76;8.87;-0.07;0.23;-0.43;-5.04;-1.96;-5.67
7999;-4.26;1.64;8.76;-0.07;0.23;-0.43;4.27;-1.61;-1.96
8008;-4.33;1.62;8.74;-0.06;0.22;-0.42;6.16;-0.70;1.47
8017;-4.49;1.95;8.80;-0.06;0.22;-0.42;4.62;0.56;1.89
8026;-4.40;2.34;8.81;-0.06;0.22;-0.42;-1.61;1.75;-1.05
8035;-4.16;2.62;8.58;-0.06;0.23;-0.42;-9.73;2.80;-5.46
8043;-4.02;2.81;8.47;-0.06;0.23;-0.42;-17.57;4.41;-10.64
8052;-3.97;2.73;8.16;-0.06;0.23;-0.42;-25.20;3.99;-14.63
8061;-3.86;2.46;7.83;-0.06;0.23;-0.42;-25.62;2.59;-14.84
8070;-3.74;2.38;7.85;-0.06;0.23;-0.42;-19.95;0.56;-12.53
8079;-3.80;2.28;7.95;-0.06;0.23;-0.42;-12.53;-2.17;-9.59
8088;-3.99;2.26;8.13;-0.07;0.22;-0.41;-7.84;-2.94;-6.72
8096;-4.25;2.23;8.26;-0.07;0.22;-0.41;-5.32;-4.13;-5.39
8105;-4.39;2.03;8.41;-0.07;0.22;-0.41;-3.92;-3.71;-3.50
8114;-4.29;2.10;8.27;-0.06;0.22;-0.41;-4.34;-3.22;-3.01
8123;-3.98;2.19;8.13;-0.06;0.22;-0.41;-5.53;-2.59;-3.22
8132;-4.14;2.32;8.14;-0.06;0.22;-0.41;-7.63;-2.24;-3.50
8141;-4.08;2.45;8.16;-0.07;0.22;-0.42;-6.72;-1.89;-2.66
8149;-4.04;2.77;8.15;-0.07;0.22;-0.42;-2.87;-2.24;-2.17
8158;-4.12;2.83;8.03;-0.07;0.22;-0.42;-1.19;-2.73;-2.45
8167;-3.93;2.70;8.05;-0.06;0.21;-0.43;-0.28;-3.57;-3.43
8176;-4.13;2.37;7.95;-0.06;0.21;-0.43;-1.33;-4.27;-4.83
8185;-4.21;2.02;8.03;-0.06;0.21;-0.43;-4.48;-5.18;-4.97
8193;-4.31;1.67;8.23;-0.06;0.22;-0.42;-8.12;-5.32;-4.76
8202;-4.34;1.83;8.46;-0.06;0.22;-0.42;-10.71;-4.41;-2.87
8211;-4.40;2.05;8.71;-0.06;0.20;-0.42;-8.89;-2.73;0.56
8220;-4.41;2.37;8.75;-0.06;0.20;-0.42;-4.27;-0.42;3.64
8229;-4.40;2.68;8.64;-0.06;0.20;-0.42;1.26;1.12;6.30
8237;-4.29;2.97;8.64;-0.06;0.21;-0.40;7.91;3.01;8.26
8246;-3.93;3.08;8.20;-0.06;0.21;-0.40;13.44;3.50;7.49
8255;-4.28;2.83;7.80;-0.06;0.21;-0.40;9.80;0.70;4.20
8264;-4.26;2.75;7.98;-0.06;0.21;-0.40;2.45;-2.31;1.26
8273;-4.16;2.66;8.26;-0.06;0.21;-0.40;-3.78;-4.62;-2.31
8281;-4.33;2.41;8.49;-0.06;0.21;-0.40;-10.50;-5.95;-5.32
8290;-4.43;2.07;8.74;-0.05;0.21;-0.41;-17.15;-5.11;-6.09
8299;-4.30;2.20;9.03;-0.05;0.21;-0.41;-19.32;-3.50;-4.97
8308;-4.20;2.23;9.04;-0.05;0.21;-0.41;-13.65;-0.56;-1.33
8317;-4.34;2.37;8.92;-0.05;0.21;-0.41;-1.54;0.98;3.08
8325;-4.15;2.66;8.76;-0.05;0.21;-0.41;7.35;1.96;7.56
8334;-4.01;2.89;8.56;-0.05;0.21;-0.41;14.84;3.22;10.57
8343;-4.16;3.04;8.42;-0.07;0.21;-0.40;19.25;2.45;9.45
8352;-4.16;3.09;8.31;-0.07;0.21;-0.40;14.77;-0.63;5.95
8361;-4.12;2.99;8.52;-0.07;0.21;-0.40;2.24;-1.68;0.35
8369;-4.04;2.58;8.54;-0.06;0.22;-0.41;-9.03;-1.40;-5.39
8378;-4.09;2.37;8.73;-0.06;0.22;-0.41;-13.44;-0.49;-6.58
8387;-4.18;2.16;8.65;-0.06;0.22;-0.41;-12.81;0.70;-7.14
8396;-4.16;2.18;8.62;-0.07;0.21;-0.41;-10.57;1.12;-5.32
8405;-4.19;2.15;8.54;-0.07;0.21;-0.41;-5.95;2.52;-2.03
8413;-4.17;2.16;8.41;-0.07;0.21;-0.41;1.19;3.43;0.98
8422;-4.16;2.32;8.35;-0.06;0.21;-0.42;5.81;3.78;3.43
8431;-4.14;2.46;8.45;-0.06;0.21;-0.42;7.70;4.34;3.92
8440;-4.13;2.68;8.28;-0.06;0.21;-0.42;6.86;3.99;2.73
8449;-3.99;2.84;8.13;-0.06;0.21;-0.40;0.77;3.22;-0.77
8457;-3.83;2.64;7.99;-0.06;0.21;-0.40;-5.39;3.08;-5.11
8466;-4.13;2.46;7.93;-0.06;0.21;-0.40;-9.59;1.47;-7.07
8475;-3.95;2.38;8.06;-0.06;0.20;-0.41;-12.18;0.07;-7.28
8484;-3.80;2.34;8.22;-0.06;0.20;-0.41;-10.01;-1.12;-6.23
8492;-4.09;2.33;8.31;-0.06;0.20;-0.41;-5.88;-1.33;-4.62
8501;-3.98;2.38;8.41;-0.06;0.20;-0.42;-1.33;-0.63;-1.26
8510;-3.98;2.35;8.47;-0.06;0.20;-0.42;4.90;-0.28;1.26
8519;-3.95;2.27;8.32;-0.06;0.21;-0.40;8.61;0.00;3.08
8528;-4.08;2.35;8.20;-0.06;0.21;-0.40;7.91;0.21;3.36
8537;-3.98;2.46;8.13;-0.06;0.21;-0.40;2.10;0.56;1.26
8545;-4.04;2.41;8.15;-0.05;0.20;-0.40;-4.20;0.21;-2.45
8554;-4.13;2.42;8.15;-0.05;0.20;-0.40;-9.17;-0.98;-3.92
8563;-3.96;2.63;8.35;-0.05;0.20;-0.40;-8.54;-0.49;-3.57
8572;-4.16;2.61;8.58;-0.06;0.20;-0.40;-3.43;-0.14;-2.59
8581;-4.15;2.66;8.66;-0.06;0.20;-0.40;1.26;0.00;0.14
8589;-3.91;2.64;8.55;-0.06;0.20;-0.40;6.09;0.98;2.03
8598;-3.99;2.68;8.33;-0.06;0.21;-0.42;9.73;1.54;3.15
8607;-4.24;2.56;8.12;-0.06;0.21;-0.42;9.73;0.91;3.92
8616;-4.02;2.35;8.10;-0.06;0.21;-0.42;9.31;-0.28;3.85
8624;-4.08;2.45;8.12;-0.06;0.21;-0.39;7.42;-17.85;3.01
8633;-4.24;2.42;8.11;-0.06;0.21;-0.39;3.15;-0.98;1.68
8642;-4.13;2.40;8.18;-0.06;0.21;-0.39;-3.22;-1.47;-0.63
8651;-4.21;2.12;8.27;-0.06;0.22;-0.41;-8.96;-0.77;-2.45
8660;-4.15;2.14;8.41;-0.06;0.22;-0.41;-10.29;0.00;-1.26
8669;-4.22;1.99;8.41;-0.06;0.22;-0.41;-6.72;1.82;1.12
8677;-4.27;2.19;8.47;-0.06;0.21;-0.39;-3.78;3.85;3.85
8686;-4.31;2.18;8.39;-0.06;0.21;-0.39;-0.28;5.88;5.88
8695;-4.48;2.14;8.30;-0.06;0.21;-0.39;2.31;5.95;7.77
8704;-4.39;1.97;8.27;-0.06;0.21;-0.41;3.57;5.53;9.66
8712;-4.29;2.04;8.41;-0.06;0.21;-0.41;4.41;6.72;12.04
8721;-4.49;2.09;8.56;-0.06;0.21;-0.41;4.55;7.56;11.83
8730;-4.38;2.03;8.48;-0.06;0.22;-0.42;-0.98;8.12;11.83
8739;-3.93;2.50;8.27;-0.06;0.22;-0.42;-1.68;11.62;13.09
8748;-3.73;2.59;7.95;-0.06;0.22;-0.42;2.94;12.25;11.76
8756;-3.72;2.63;7.52;-0.05;0.22;-0.42;2.45;9.59;9.80
8765;-3.52;2.97;7.13;-0.05;0.22;-0.42;-0.14;7.77;8.47
8774;-3.49;3.02;7.21;-0.05;0.22;-0.42;-1.68;2.52;6.23
8783;-3.46;2.85;7.53;-0.05;0.20;-0.41;-2.80;-1.05;5.39
8792;-3.75;2.71;7.84;-0.05;0.20;-0.41;-4.06;-3.01;4.48
8800;-3.76;2.38;8.23;-0.05;0.20;-0.41;-4.41;-3.01;3.43
8809;-4.19;2.20;8.52;-0.06;0.21;-0.41;-4.69;-1.75;3.43
8818;-4.52;1.95;8.79;-0.06;0.21;-0.41;-6.58;0.14;3.78
8827;-4.66;1.56;9.12;-0.06;0.21;-0.40;-9.24;2.59;4.06
8836;-4.81;1.36;9.22;-0.06;0.21;-0.40;-12.39;5.67;5.25
8844;-4.57;1.54;8.84;-0.06;0.21;-0.40;-10.29;11.83;9.59
8853;-4.40;1.62;8.62;-0.06;0.21;-0.41;-5.32;12.53;12.74
8862;-4.28;2.05;8.33;-0.06;0.21;-0.41;0.91;10.64;15.19
8871;-4.31;2.23;8.32;-0.06;0.21;-0.41;3.22;9.94;16.66
8879;-4.38;2.36;8.41;-0.06;0.20;-0.40;2.03;8.96;15.96
8888;-4.21;2.41;8.56;-0.06;0.20;-0.40;1.12;9.52;14.77
8897;-4.28;2.40;8.92;-0.06;0.20;-0.40;0.70;9.94;12.39
8906;-4.32;2.21;8.98;-0.05;0.20;-0.40;1.26;12.46;10.01
8914;-4.36;2.25;9.04;-0.05;0.20;-0.40;-0.77;13.44;8.75
8923;-4.08;2.20;9.03;-0.05;0.20;-0.40;0.07;17.92;9.59
8932;-4.17;2.19;8.89;-0.06;0.21;-0.41;5.04;20.02;9.87
8941;-4.06;2.07;8.40;-0.06;0.21;-0.41;8.05;19.67;16.31
8950;-3.81;2.33;8.23;-0.06;0.21;-0.41;12.39;19.60;21.70
8958;-4.09;2.56;8.29;-0.06;0.21;-0.40;19.67;16.31;22.89
8967;-3.89;2.49;8.26;-0.06;0.21;-0.40;20.58;13.09;22.96
8976;-3.69;2.43;8.26;-0.06;0.21;-0.40;16.52;11.55;20.58
8985;-3.81;2.59;8.37;-0.06;0.20;-0.42;10.15;11.20;16.52
8994;-4.01;2.38;8.35;-0.06;0.20;-0.42;0.28;10.29;11.76
9002;-4.17;1.97;8.61;-0.06;0.20;-0.42;-9.03;9.03;9.59
9011;-4.26;1.61;8.68;-0.05;0.21;-0.41;-15.82;9.87;10.22
9020;-4.43;1.24;8.82;-0.05;0.21;-0.41;-16.94;12.18;11.69
9029;-4.41;0.96;8.90;-0.05;0.21;-0.41;-13.86;14.14;16.03
9038;-4.23;1.08;8.76;-0.05;0.21;-0.41;-8.40;16.31;22.82
9046;-4.08;1.27;8.58;-0.05;0.21;-0.41;0.91;17.29;28.70
9055;-3.98;1.51;8.34;-0.05;0.21;-0.41;12.18;15.33;32.48
9064;-3.66;1.96;8.35;-0.04;0.22;-0.42;21.14;12.60;35.28
9073;-3.78;2.20;8.40;-0.04;0.22;-0.42;24.99;9.24;35.14
9082;-1.85;2.57;8.58;-0.04;0.22;-0.42;21.21;7.00;32.41
9091;-3.63;2.71;8.69;-0.05;0.22;-0.43;13.16;6.30;27.16
9100;-3.47;2.63;8.68;-0.05;0.22;-0.43;1.12;8.26;21.07
9108;-3.55;2.39;8.66;-0.05;0.22;-0.43;-9.66;8.96;16.17
9117;-3.73;2.12;8.72;-0.05;0.20;-0.41;-18.62;9.73;13.02
9126;-3.81;2.00;8.57;-0.05;0.20;-0.41;-22.75;9.73;11.76
9135;-3.78;1.93;8.71;-0.05;0.21;-0.41;-21.70;9.87;12.04
9144;-3.89;1.76;8.72;-0.05;0.21;-0.41;-18.41;8.96;15.89
9153;-3.70;1.69;8.66;-0.05;0.21;-0.41;-12.67;8.47;21.49
9161;-3.55;1.98;8.46;-0.05;0.21;-0.41;-3.15;7.14;27.09
9170;-3.30;2.20;8.46;-0.05;0.21;-0.41;7.49;4.27;31.01
9179;-3.32;2.44;8.43;-0.05;0.21;-0.41;15.75;1.75;32.55
9188;-3.25;2.56;8.49;-0.05;0.19;-0.41;18.34;-0.49;30.66
9196;-3.23;2.71;8.42;-0.05;0.19;-0.41;13.30;-1.47;27.30
9205;-3.29;2.62;8.51;-0.05;0.19;-0.41;3.78;-1.26;21.98
9214;-3.44;2.57;8.64;-0.05;0.21;-0.41;-6.65;-0.77;16.31
9223;-3.37;2.24;8.66;-0.05;0.21;-0.41;-16.52;0.28;12.25
9232;-3.34;2.05;8.59;-0.05;0.21;-0.41;-20.30;1.82;10.36
9240;-3.42;1.79;8.59;-0.06;0.21;-0.40;-18.69;2.31;10.57
9249;-3.52;1.74;8.63;-0.06;0.21;-0.40;-12.25;1.26;11.90
9258;-3.37;1.54;8.45;-0.06;0.21;-0.40;-5.74;-0.35;14.77
9267;-3.44;1.47;8.39;-0.06;0.21;-0.40;-1.19;-1.05;17.29
9276;-3.50;1.51;8.47;-0.06;0.21;-0.40;2.03;-1.68;19.53
9284;-3.39;1.75;8.46;-0.06;0.21;-0.40;3.99;-3.08;19.95
9293;-3.46;2.02;8.64;-0.05;0.20;-0.41;3.78;-4.27;18.90
9302;-3.68;2.18;8.63;-0.05;0.20;-0.41;0.49;-5.18;14.21
9311;-3.68;2.33;8.80;-0.05;0.20;-0.41;-4.55;-6.09;9.59
9320;-3.55;2.25;8.84;-0.07;0.21;-0.42;-10.01;-5.04;5.32
9329;-3.69;2.17;9.03;-0.07;0.21;-0.42;-12.88;-2.24;3.01
9338;-3.63;1.90;9.01;-0.07;0.21;-0.42;-13.37;0.28;3.15
9346;-3.74;1.68;8.87;-0.06;0.20;-0.40;-11.34;2.52;4.48
9355;-3.70;1.58;8.79;-0.06;0.20;-0.40;-8.26;2.52;7.98
9364;-3.79;1.49;8.65;-0.06;0.20;-0.40;-5.25;3.15;11.41
9373;-3.95;1.56;8.56;-0.06;0.20;-0.40;-2.03;2.24;13.37
9382;-3.97;1.65;8.56;-0.06;0.20;-0.40;0.98;0.35;14.07
9390;-3.92;1.85;8.54;-0.06;0.20;-0.40;2.45;-2.10;13.93
9399;-3.97;1.92;8.56;-0.06;0.20;-0.40;3.99;-2.73;13.30
9408;-3.71;1.96;8.46;-0.06;0.20;-0.40;4.20;-1.75;11.27
9417;-3.59;2.10;8.26;-0.06;0.20;-0.41;3.64;-0.91;9.66
9426;-3.28;2.06;8.36;-0.06;0.20;-0.41;2.52;0.00;6.72
9434;-3.47;1.94;8.32;-0.06;0.20;-0.41;-0.28;0.00;5.25
9443;-3.64;1.77;8.32;-0.07;0.21;-0.40;-5.53;-0.35;5.95
9452;-3.65;1.61;8.28;-0.07;0.21;-0.40;-9.03;-1.19;7.63
9461;-3.74;1.54;8.44;-0.07;0.21;-0.40;-9.52;-2.45;8.82
9469;-3.75;1.67;8.49;-0.06;0.22;-0.40;-8.54;-4.27;9.59
9478;-3.80;1.76;8.66;-0.06;0.22;-0.40;-6.65;-4.76;8.26
9487;-3.93;1.85;8.58;-0.06;0.22;-0.40;-6.44;-5.25;5.95
9496;-3.76;1.90;8.69;-0.06;0.21;-0.40;-7.49;-4.69;3.43
9505;-3.90;1.91;8.70;-0.06;0.21;-0.40;-9.59;-3.57;1.33
9513;-3.84;1.87;8.64;-0.06;0.21;-0.40;-10.36;-2.52;0.21
9522;-3.56;1.92;8.68;-0.07;0.20;-0.41;-9.10;-0.56;0.07
9531;-3.68;1.97;8.70;-0.07;0.20;-0.41;-6.23;-0.21;-1.05
9540;-3.67;1.92;8.48;-0.07;0.20;-0.41;-3.64;-2.03;1.05
9549;-3.70;1.72;8.33;-0.07;0.20;-0.40;-3.15;-4.06;5.46
9557;-3.69;1.67;8.59;-0.07;0.20;-0.40;-4.34;-4.76;10.01
9566;-3.72;1.72;8.57;-0.07;0.20;-0.40;-3.71;-5.81;11.76
9575;-3.86;1.92;8.71;-0.07;0.20;-0.39;-2.87;-6.79;10.92
9584;-3.87;2.07;8.74;-0.07;0.20;-0.39;-4.34;-5.81;9.38
9593;-3.85;2.08;8.86;-0.07;0.20;-0.39;-7.42;-4.48;6.58
9602;-3.78;2.02;8.97;-0.07;0.20;-0.40;-11.34;-2.17;3.99
9610;-4.03;2.11;8.67;-0.07;0.20;-0.40;-12.95;3.29;2.80
9619;-4.10;1.82;8.75;-0.07;0.20;-0.40;-13.72;1.33;2.03
9628;-5.51;1.80;8.70;-0.08;0.21;-0.40;-8.26;1.12;4.41
9637;-3.73;1.89;8.56;-0.08;0.21;-0.40;-0.49;-0.77;6.86
9646;-3.70;1.90;8.55;-0.08;0.21;-0.40;8.54;-4.06;9.87
9654;-3.55;1.96;8.65;-0.07;0.20;-0.39;13.09;-6.79;12.67
9663;-3.36;1.98;8.59;-0.07;0.20;-0.39;12.11;-8.05;13.79
9672;-3.26;2.05;8.61;-0.07;0.20;-0.39;7.07;-7.35;12.81
9681;-3.41;2.06;8.76;-0.07;0.20;-0.40;1.19;-5.53;9.24
9690;-3.51;2.00;8.76;-0.07;0.20;-0.40;-4.97;-4.27;5.04
9699;-3.48;1.95;8.84;-0.07;0.20;-0.40;-8.33;-2.94;2.03
9707;-3.61;1.90;8.72;-0.07;0.21;-0.40;-10.43;-2.24;-0.42
9716;-3.70;1.78;8.76;-0.07;0.21;-0.40;-11.27;-1.47;-1.96
9725;-3.70;1.69;8.70;-0.07;0.19;-0.40;-9.73;-0.91;-1.89
9734;-3.71;1.65;8.71;-0.07;0.19;-0.40;-4.48;-0.42;-0.98
9743;-3.52;1.57;8.56;-0.07;0.19;-0.40;0.98;-0.49;1.54
9752;-3.42;1.61;8.48;-0.07;0.20;-0.40;6.72;-1.75;6.30
9760;-3.35;1.66;8.38;-0.07;0.20;-0.40;11.48;-3.43;8.82
9769;-3.38;1.78;8.32;-0.07;0.20;-0.40;13.23;-4.97;8.75
9778;-3.23;1.85;8.37;-0.08;0.21;-0.41;12.67;-6.16;6.65
9787;-3.42;1.82;8.52;-0.08;0.21;-0.41;8.96;-5.67;3.08
9796;-3.58;1.90;8.59;-0.08;0.21;-0.41;2.73;-4.13;-0.84
9804;-3.48;1.72;8.51;-0.08;0.21;-0.41;-0.70;-2.87;-4.55
9813;-3.75;1.62;8.44;-0.08;0.21;-0.41;-0.49;-1.68;-7.84
9822;-3.77;1.56;8.46;-0.08;0.21;-0.41;1.75;-1.33;-8.89
9831;-3.80;1.40;8.46;-0.07;0.20;-0.40;6.16;-1.33;-9.31
9839;-3.97;1.36;8.43;-0.07;0.20;-0.40;9.52;-1.96;-8.05
9848;-4.08;1.42;8.44;-0.07;0.20;-0.40;11.27;-3.08;-6.02
9857;-4.24;1.37;8.32;-0.08;0.20;-0.40;11.48;-5.11;-3.43
9866;-4.33;1.31;8.08;-0.08;0.20;-0.40;9.87;-6.58;0.70
9875;-4.29;1.33;7.96;-0.08;0.20;-0.40;10.22;-7.07;4.13
9883;-4.29;1.46;8.05;-0.07;0.20;-0.41;12.74;-9.52;6.02
9892;-4.19;1.47;8.13;-0.07;0.20;-0.41;15.68;-9.66;6.86
9901;-4.01;1.63;8.37;-0.07;0.20;-0.41;15.05;-9.31;6.86
9910;-3.92;1.82;8.60;-0.08;0.21;-0.40;10.22;-7.49;4.41
9919;-3.88;2.01;8.78;-0.08;0.21;-0.40;2.03;-5.11;0.07
9927;-4.13;2.16;9.05;-0.08;0.21;-0.40;-4.48;-2.03;-4.69
9936;-4.11;2.02;9.12;-0.08;0.22;-0.40;-9.73;-0.98;-12.32
9945;-3.86;1.91;9.10;-0.08;0.22;-0.40;-11.97;0.98;-16.73
9954;-4.08;1.79;9.11;-0.08;0.22;-0.40;-11.48;1.33;-15.47
9962;-3.98;1.56;8.97;-0.08;0.20;-0.40;-7.56;0.42;-12.32
9971;-3.79;1.61;9.04;-0.08;0.20;-0.40;-2.87;1.68;-8.05
9980;-3.85;1.60;8.93;-0.08;0.20;-0.40;1.33;1.54;-4.13
9989;-3.78;1.81;8.88;-0.08;0.20;-0.41;6.23;0.28;-1.47
9997;-3.72;1.84;8.82;-0.08;0.20;-0.41;10.99;0.07;-0.49
10006;-3.60;1.81;8.61;-0.08;0.20;-0.41;13.16;-0.63;-1.40
10015;-3.50;1.79;8.45;-0.08;0.20;-0.41;12.67;-0.91;-1.75
10024;-3.57;1.68;8.34;-0.08;0.20;-0.41;9.94;-0.91;-0.28
10033;-3.57;1.57;8.18;-0.08;0.20;-0.41;7.28;-1.40;2.38
10041;-3.51;1.54;8.19;-0.07;0.22;-0.41;5.88;-2.24;4.76
10050;-3.52;1.64;8.12;-0.07;0.22;-0.41;6.09;-3.08;5.88
10059;-3.57;1.72;8.28;-0.08;0.21;-0.41;5.25;-4.06;5.46
10068;-3.19;1.70;8.46;-0.08;0.21;-0.41;4.41;-3.43;4.34
10076;-3.32;1.92;8.76;-0.08;0.21;-0.41;2.87;-2.80;0.91
10085;-3.29;1.99;8.76;-0.08;0.20;-0.39;1.05;-2.38;-2.66
10094;-3.30;3.62;8.67;-0.08;0.20;-0.39;0.49;-1.75;-5.67
10103;-3.60;1.87;8.78;-0.08;0.20;-0.39;0.84;0.28;-8.47
10112;-3.78;1.77;8.72;-0.07;0.21;-0.41;1.12;1.61;-10.22
10120;-3.91;1.59;8.75;-0.07;0.21;-0.41;2.24;2.10;-10.78
10129;-3.96;1.42;8.77;-0.07;0.21;-0.41;3.43;2.45;-9.66
10138;-3.92;1.34;8.79;-0.07;0.22;-0.42;5.25;1.96;-7.28
10147;-4.08;1.38;8.56;-0.07;0.22;-0.42;8.40;-0.42;-4.62
10156;-4.16;1.27;8.47;-0.07;0.22;-0.42;11.83;-2.80;-0.35
10164;-4.05;1.21;8.56;-0.08;0.22;-0.42;12.53;-4.69;3.08
10173;-4.13;1.40;8.51;-0.08;0.22;-0.42;10.85;-5.95;4.62
10182;-4.11;1.54;8.58;-0.08;0.22;-0.42;5.60;-5.88;3.64
10191;-4.31;1.68;8.81;-0.07;0.21;-0.40;-0.28;-5.39;0.77
10200;-4.21;1.68;8.89;-0.07;0.21;-0.40;-6.79;-4.55;-2.80
10208;-4.27;1.67;8.94;-0.07;0.21;-0.40;-11.62;-2.59;-5.60
10217;-4.29;1.56;8.87;-0.07;0.22;-0.41;-11.06;-1.82;-7.98
10226;-4.34;1.49;8.76;-0.07;0.22;-0.41;-7.91;-0.84;-9.03
10235;-4.19;1.49;8.70;-0.07;0.22;-0.41;-3.15;1.40;-8.82
10244;-4.21;1.44;8.59;-0.07;0.22;-0.41;2.66;2.73;-7.35
10253;-4.20;1.59;8.56;-0.07;0.22;-0.41;4.27;2.73;-6.79
10261;-4.31;1.63;8.59;-0.07;0.22;-0.41;1.40;1.47;-6.30
10270;-4.25;1.61;8.48;-0.07;0.22;-0.42;-3.85;-0.35;-5.18
10279;-4.04;1.62;8.78;-0.07;0.22;-0.42;-8.33;0.28;-3.36
10288;-4.16;1.52;8.96;-0.07;0.22;-0.42;-8.82;1.40;-1.40
10297;-3.75;1.64;9.04;-0.07;0.22;-0.41;-4.41;0.70;-0.91
10306;-3.69;1.64;8.87;-0.07;0.22;-0.41;2.38;1.05;0.49
10314;-3.47;1.62;8.62;-0.07;0.22;-0.41;8.61;1.47;-0.14
10323;-3.45;1.49;8.43;-0.07;0.21;-0.41;13.30;2.03;0.28
10332;-3.35;1.50;8.24;-0.07;0.21;-0.41;16.31;0.91;0.63
10341;-3.47;1.47;8.43;-0.07;0.23;-0.42;15.40;-1.47;-17.78
10350;-3.29;1.33;8.47;-0.07;0.23;-0.42;10.99;-1.89;-0.35
10358;-3.32;1.33;8.69;-0.07;0.23;-0.42;6.51;-1.19;-1.12
10367;-3.44;1.31;8.86;-0.07;0.21;-0.41;2.73;-1.26;-1.96
10376;-3.41;1.26;8.83;-0.07;0.21;-0.41;0.35;-0.91;-2.24
10385;-3.58;1.22;9.04;-0.07;0.21;-0.41;-0.98;-1.40;-1.40
10394;-3.40;1.24;7.41;-0.07;0.23;-0.40;0.28;-2.03;1.26
10402;-3.59;1.41;9.08;-0.07;0.23;-0.40;2.80;-2.24;3.36
10411;-3.70;1.51;9.21;-0.07;0.23;-0.40;4.20;-2.73;4.20
10420;-3.50;1.64;9.22;-0.07;0.22;-0.42;4.41;-3.08;4.69
10429;-3.43;1.67;9.22;-0.07;0.22;-0.42;2.66;-1.75;3.99
10437;-3.64;1.82;9.23;-0.07;0.22;-0.42;0.84;-0.42;2.38
10446;-3.67;1.74;9.04;-0.06;0.23;-0.41;-0.28;0.84;0.63
10455;-3.77;1.56;8.99;-0.06;0.23;-0.41;-0.91;1.12;0.49
10464;-3.91;1.60;8.83;-0.06;0.23;-0.41;-1.26;-0.28;0.77
10473;-4.06;1.64;8.89;-0.07;0.23;-0.42;-0.70;-1.89;1.33
10481;-3.98;1.58;8.71;-0.07;0.23;-0.42;-0.14;-2.52;2.03
10490;-3.81;1.67;8.66;-0.07;0.23;-0.42;1.54;-1.54;1.40
10499;-4.12;1.68;8.56;-0.08;0.23;-0.43;3.15;-0.98;0.28
10508;-4.03;1.72;8.11;-0.08;0.23;-0.43;4.69;-0.91;0.77
10517;-4.21;1.64;7.77;-0.08;0.23;-0.43;6.93;-1.89;1.12
10525;-4.26;1.64;7.57;-0.08;0.22;-0.41;8.33;-3.57;1.61
10534;-4.10;1.47;7.47;-0.08;0.22;-0.41;7.70;-5.04;1.68
10543;-4.01;1.44;7.14;-0.08;0.22;-0.41;6.30;-6.02;0.70
10552;-4.26;1.42;7.30;-0.07;0.22;-0.42;0.77;-6.30;-0.91
10561;-4.32;1.53;7.62;-0.07;0.22;-0.42;-6.72;-8.33;-3.36
10569;-4.47;1.62;8.15;-0.07;0.22;-0.42;-14.63;-9.94;-6.16
10578;-4.65;1.74;8.92;-0.08;0.23;-0.40;-19.67;-10.78;-9.66
10587;-4.67;1.67;9.69;-0.08;0.23;-0.40;-20.30;-8.89;-11.48
10596;-4.49;1.50;10.18;-0.08;0.23;-0.40;-17.08;-6.44;-11.69
10605;-4.60;1.05;10.26;-0.08;0.23;-0.41;-10.50;1.82;-12.11
10614;-4.80;1.41;10.11;-0.08;0.23;-0.41;-4.55;0.14;-8.82
10623;-4.11;1.18;9.96;-0.08;0.23;-0.41;1.47;3.22;-4.41
10631;-4.34;1.31;9.82;-0.08;0.22;-0.41;3.22;5.67;-4.69
10640;-4.10;1.62;9.63;-0.08;0.22;-0.41;1.05;6.37;-3.99
10649;-3.82;1.69;9.79;-0.07;0.23;-0.40;-1.05;7.56;-4.83
10658;-3.57;1.84;9.81;-0.07;0.23;-0.40;-4.13;10.29;-5.74
10667;-3.35;1.97;9.69;-0.07;0.23;-0.40;-3.78;11.83;-6.16
10676;-3.25;1.93;9.61;-0.06;0.23;-0.40;0.14;12.39;-5.32
10684;-3.04;1.87;9.41;-0.06;0.23;-0.40;5.88;11.13;-4.97
10693;-3.05;1.85;9.43;-0.06;0.23;-0.40;11.69;10.85;-3.78
10702;-2.81;1.92;9.40;-0.07;0.23;-0.40;10.78;10.78;-3.57
10711;-2.71;2.00;9.10;-0.07;0.23;-0.40;8.89;10.64;-5.11
10719;-2.68;1.88;9.03;-0.07;0.23;-0.40;7.42;10.15;-6.65
10728;-2.57;1.67;8.82;-0.06;0.23;-0.40;4.55;6.79;-7.63
10737;-2.43;1.65;8.56;-0.06;0.23;-0.40;4.13;5.04;-7.07
10746;-2.54;1.56;8.51;-0.06;0.23;-0.40;3.01;2.52;-6.44
10755;-2.56;1.58;8.64;-0.06;0.23;-0.41;1.89;-0.63;-7.63
10763;-2.75;1.42;8.84;-0.06;0.23;-0.41;0.91;-1.61;-6.79
10772;-2.61;1.45;9.17;-0.06;0.23;-0.41;0.28;-1.19;-4.76
10781;-2.99;1.39;9.09;-0.06;0.23;-0.41;1.68;3.08;-2.03
10790;-3.34;1.41;8.85;-0.06;0.23;-0.41;4.90;4.20;-2.80
10799;-3.37;1.29;8.61;-0.06;0.23;-0.41;5.88;5.67;-2.03
10807;-3.53;1.30;8.39;-0.07;0.22;-0.41;4.55;5.81;-1.05
10816;-3.47;1.32;8.22;-0.07;0.22;-0.41;2.73;4.06;-0.21
10825;-3.70;1.32;8.28;-0.07;0.22;-0.41;2.45;2.73;-0.35
10834;-3.71;1.30;8.46;-0.05;0.23;-0.42;1.89;1.75;-0.77
10843;-3.85;1.08;8.43;-0.05;0.23;-0.42;3.43;1.47;0.00
10851;-3.73;1.11;8.35;-0.05;0.23;-0.42;4.69;0.84;1.12
10860;-3.82;1.06;8.39;-0.06;0.22;-0.42;6.30;1.89;1.82
10869;-3.85;1.21;8.44;-0.06;0.22;-0.42;6.02;2.45;2.10
10878;-3.75;1.23;8.28;-0.06;0.22;-0.42;4.13;2.87;2.73
10886;-3.80;1.26;8.37;-0.06;0.22;-0.42;2.24;2.31;2.80
10895;-3.83;1.31;8.60;-0.06;0.22;-0.42;1.12;1.33;3.15
10904;-1.85;1.19;8.66;-0.06;0.22;-0.42;1.89;0.14;3.08
10913;-3.59;1.21;8.56;-0.06;0.23;-0.42;3.78;-1.82;2.94
10922;-3.50;1.16;8.51;-0.06;0.23;-0.42;4.69;-2.38;3.22
10930;-3.46;1.23;8.56;-0.06;0.23;-0.42;5.46;-2.87;3.36
10939;-3.54;1.21;8.33;-0.06;0.22;-0.42;4.34;-3.85;3.57
10948;-3.50;1.26;8.51;-0.06;0.22;-0.42;2.59;-4.06;4.76
10957;-3.47;1.34;8.75;-0.06;0.23;-0.41;-0.21;-3.43;4.13
10966;-3.68;1.50;9.16;-0.06;0.23;-0.41;-2.94;-2.10;2.73
10974;-3.62;1.49;9.22;-0.06;0.23;-0.41;-4.20;-0.63;1.61
10983;-3.60;1.52;9.36;-0.05;0.22;-0.41;-4.90;1.47;0.49
10992;-3.72;1.58;9.19;-0.05;0.22;-0.41;-5.81;3.57;-0.35
11001;-3.83;1.60;8.99;-0.05;0.22;-0.41;-5.95;3.50;-0.77
11010;-3.65;1.62;9.03;-0.06;0.23;-0.43;-8.12;3.57;-0.98
11019;-3.75;1.68;9.27;-0.06;0.23;-0.43;-10.64;3.78;-1.12
11027;-3.58;1.62;9.30;-0.06;0.23;-0.43;-11.69;4.34;-0.49
11036;-3.65;1.69;9.35;-0.06;0.22;-0.42;-8.40;4.34;-0.21
11045;-3.43;1.54;9.42;-0.06;0.22;-0.42;-4.13;4.69;0.63
11054;-3.33;1.49;9.40;-0.06;0.22;-0.42;0.70;5.53;1.68
11063;-3.25;1.44;9.24;-0.06;0.23;-0.42;4.55;6.23;2.24
11071;-3.26;1.56;9.03;-0.06;0.23;-0.42;7.63;8.19;1.68
11080;-3.33;1.61;8.73;-0.06;0.23;-0.42;6.09;8.40;1.12
11089;-3.37;1.50;8.60;-0.05;0.23;-0.43;2.03;7.63;0.42
11098;-3.48;1.57;8.66;-0.05;0.23;-0.43;-2.03;6.09;-1.12
11106;-3.41;1.75;8.76;-0.05;0.23;-0.43;-5.25;4.97;-2.38
11115;-3.44;1.57;9.11;-0.05;0.22;-0.42;-6.65;5.39;-2.73
11124;-3.35;1.46;9.15;-0.05;0.22;-0.42;-7.91;6.37;-1.89
11133;-3.17;1.44;8.89;-0.05;0.22;-0.42;-5.04;6.79;-0.42
11142;-3.09;1.46;8.85;-0.04;0.22;-0.41;-0.14;6.02;1.33
11150;-3.03;1.49;8.86;-0.04;0.22;-0.41;2.94;4.90;2.31
11159;-2.93;1.49;8.71;-0.04;0.22;-0.41;3.22;4.27;2.87
11168;-3.04;1.58;8.78;-0.04;0.22;-0.42;1.89;5.04;3.01
11177;-3.10;1.56;8.79;-0.04;0.22;-0.42;1.12;4.90;1.96
11185;-3.12;1.48;8.66;-0.04;0.22;-0.42;0.77;4.27;0.84
11194;-3.20;1.45;8.60;-0.05;0.21;-0.42;1.54;3.85;1.05
11203;-3.10;1.41;8.69;-0.05;0.21;-0.42;1.47;3.85;2.52
11212;-3.11;1.46;8.73;-0.05;0.21;-0.42;1.75;4.76;3.15
11221;-3.17;1.55;8.87;-0.05;0.23;-0.43;0.28;5.04;2.73
11229;-3.12;1.47;8.94;-0.05;0.23;-0.43;-2.10;4.48;2.59
11238;-3.01;1.46;8.91;-0.05;0.23;-0.43;-4.69;5.11;2.24
11247;-3.05;1.40;8.88;-0.05;0.22;-0.43;-4.48;4.83;1.96
11256;-3.07;1.34;8.82;-0.05;0.22;-0.43;-3.15;4.41;2.87
11265;-3.02;1.35;8.56;-0.06;0.22;-0.42;1.33;2.66;4.13
11273;-3.00;1.54;8.68;-0.06;0.22;-0.42;4.48;1.19;5.04
11282;-2.99;1.68;8.76;-0.06;0.22;-0.42;4.55;0.42;4.06
11291;-3.14;1.70;8.76;-0.04;0.22;-0.42;0.98;0.84;2.45
11300;-3.17;1.63;8.93;-0.04;0.22;-0.42;-2.59;1.33;1.47
11309;-3.17;1.50;9.05;-0.04;0.22;-0.42;-3.85;2.52;1.82
11317;-3.13;1.51;9.18;-0.05;0.22;-0.41;-2.73;3.08;0.98
11326;-3.10;1.44;7.47;-0.05;0.22;-0.41;0.21;3.78;1.61
11335;-3.30;1.48;9.02;-0.05;0.22;-0.41;1.75;4.06;1.68
11344;-3.35;1.53;9.00;-0.05;0.22;-0.41;2.87;3.29;2.10
11353;-3.22;1.67;8.92;-0.05;0.22;-0.41;3.29;2.52;2.80
11361;-3.32;1.62;8.97;-0.05;0.22;-0.41;2.94;2.17;2.10
11370;-3.34;1.72;9.02;-0.04;0.22;-0.42;2.52;2.03;1.75
11379;-3.17;1.79;9.01;-0.04;0.22;-0.42;2.73;2.73;0.91
11388;-3.29;1.82;8.88;-0.04;0.22;-0.42;2.52;3.36;0.70
11397;-3.35;1.93;8.79;-0.04;0.23;-0.42;1.61;2.59;-0.70
11406;-3.24;1.96;8.61;-0.04;0.23;-0.42;0.14;1.54;-3.43
11415;-3.19;1.87;8.68;-0.04;0.23;-0.42;-1.75;1.54;-5.39
11423;-3.25;1.79;8.73;-0.04;0.22;-0.43;-4.69;1.12;-6.30
11432;-3.14;1.72;9.02;-0.04;0.22;-0.43;-6.02;1.75;-6.51
11441;-3.07;1.71;9.17;-0.04;0.22;-0.43;-5.46;3.15;-6.51
11450;-2.99;1.59;9.13;-0.03;0.23;-0.41;-1.40;4.06;-6.02
11459;-2.99;1.56;9.07;-0.03;0.23;-0.41;4.13;4.48;-5.04
11468;-3.17;1.46;9.03;-0.03;0.23;-0.41;9.73;4.55;-3.92
11476;-3.32;1.43;8.71;-0.03;0.23;-0.42;12.04;3.15;-2.45
11485;-3.24;1.35;8.66;-0.03;0.23;-0.42;11.83;0.98;0.56
11494;-3.29;1.46;8.67;-0.03;0.23;-0.42;8.61;0.42;0.70
11503;-3.21;1.62;8.56;-0.04;0.23;-0.43;5.67;-0.77;-0.91
11512;-3.07;1.54;8.60;-0.04;0.23;-0.43;3.78;-0.91;-4.76
11520;-3.01;1.54;8.94;-0.04;0.23;-0.43;-0.07;0.35;-7.14
11529;-2.88;1.63;9.02;-0.04;0.24;-0.42;-4.13;2.03;-8.82
11538;-2.83;1.46;9.30;-0.04;0.24;-0.42;-6.16;4.62;-10.78
11547;-2.84;1.36;9.44;-0.04;0.23;-0.42;-5.60;7.49;-11.48
11556;-3.14;1.36;9.16;-0.03;0.23;-0.42;-3.15;7.98;-9.94
11564;-3.11;1.21;9.04;-0.03;0.23;-0.42;1.12;7.70;-7.56
11573;-3.29;1.18;8.97;-0.04;0.23;-0.41;3.99;7.14;-5.39
11582;-3.22;1.26;8.98;-0.04;0.23;-0.41;6.16;5.32;-4.06
11591;-3.17;1.31;9.01;-0.04;0.23;-0.41;7.21;3.64;-4.13
11600;-3.09;1.39;8.99;-0.03;0.23;-0.43;6.09;3.15;-4.69
11608;-3.07;1.44;9.04;-0.03;0.23;-0.43;4.27;3.64;-5.11
11617;-3.04;1.57;9.12;-0.03;0.23;-0.43;1.89;4.20;-6.79
11626;-2.90;1.58;9.35;-0.04;0.23;-0.42;-1.19;5.25;-9.03
11635;-3.12;1.44;9.52;-0.04;0.23;-0.42;-2.31;8.96;-10.22
11644;-3.22;1.49;9.50;-0.04;0.23;-0.42;-5.81;9.73;-10.71
11652;-3.25;1.53;9.43;-0.02;0.23;-0.43;-9.94;9.59;-10.01
11661;-3.06;1.28;9.31;-0.02;0.23;-0.43;-10.85;10.29;-9.45
11670;-3.15;1.44;9.40;-0.02;0.23;-0.43;-10.92;10.15;-9.31
11679;-3.07;1.64;9.18;-0.03;0.23;-0.42;-9.80;8.89;-9.24
11688;-2.97;1.49;9.30;-0.03;0.23;-0.42;-6.86;7.63;-9.03
11696;-2.89;1.46;9.39;-0.03;0.23;-0.42;-3.36;6.51;-8.75
11705;-2.95;1.48;9.22;-0.02;0.23;-0.42;-0.49;4.34;-7.35
11714;-2.33;1.67;9.13;-0.02;0.23;-0.42;2.94;2.66;-7.56
11723;-2.91;1.24;9.48;-0.02;0.23;-0.42;3.43;1.54;-12.67
11732;-2.54;1.58;8.92;-0.02;0.23;-0.42;1.96;5.11;-8.33
11741;-3.19;1.34;9.08;-0.02;0.23;-0.42;-4.41;5.53;-8.61
11749;-2.83;1.31;9.04;-0.02;0.23;-0.42;-9.94;4.97;-7.28
11758;-3.08;1.31;9.25;-0.01;0.23;-0.42;-14.84;6.65;-6.65
11767;-3.02;1.42;9.31;-0.01;0.23;-0.42;-18.06;6.72;-7.14
11776;-2.86;1.36;9.27;-0.01;0.23;-0.42;-16.94;6.93;-8.05
11785;-2.84;1.34;9.17;-0.01;0.22;-0.41;-12.46;6.37;-6.86
11794;-2.95;1.17;8.95;-0.01;0.22;-0.41;-7.98;4.55;-5.32
11802;-2.94;1.25;8.89;-0.01;0.22;-0.41;-2.94;0.77;-3.57
11811;-2.59;1.23;8.88;-0.01;0.23;-0.42;0.84;-3.29;-2.03
11820;-2.60;1.23;8.93;-0.01;0.23;-0.42;4.76;-4.76;0.70
11829;-2.58;1.42;9.07;-0.01;0.23;-0.42;6.86;-6.65;0.91
11838;-2.56;1.50;9.19;-0.02;0.22;-0.43;7.07;-6.09;0.28
11846;-2.81;1.75;9.23;-0.02;0.22;-0.43;5.46;-3.50;-2.87
11855;-2.91;1.62;8.97;-0.02;0.23;-0.42;0.70;-1.33;-4.97
11864;-2.73;1.49;8.97;-0.02;0.23;-0.42;-6.72;0.14;-6.16
11873;-2.96;1.40;9.09;-0.02;0.23;-0.42;-13.23;1.54;-8.05
11882;-2.96;1.31;9.12;-0.02;0.22;-0.42;-17.15;1.68;-7.00
11890;-2.98;1.27;9.22;-0.02;0.22;-0.42;-16.31;2.10;-5.60
11899;-2.91;1.30;9.10;-0.02;0.22;-0.42;-10.15;1.47;-4.62
11908;-2.66;1.12;9.02;-0.02;0.23;-0.42;-3.78;-0.77;-1.96
11917;-2.53;1.11;8.88;-0.02;0.23;-0.42;5.32;-1.68;1.33
11926;-2.71;1.20;8.95;-0.02;0.23;-0.42;12.53;-1.82;2.73
11934;-2.64;1.40;8.82;-0.02;0.22;-0.42;15.40;-3.08;2.87
11943;-2.56;1.44;8.91;-0.02;0.22;-0.42;14.21;-4.41;0.84
11952;-2.72;1.54;9.15;-0.02;0.22;-0.42;8.19;-3.36;-2.94
11961;-2.97;1.64;9.36;-0.02;0.21;-0.42;2.52;-1.96;-5.46
11970;-2.92;1.67;9.25;-0.02;0.21;-0.42;-0.49;0.49;-6.72
11979;-3.14;1.60;7.39;-0.02;0.21;-0.42;-1.68;1.75;-7.14
11987;-2.97;1.48;9.03;-0.02;0.23;-0.43;-1.89;2.45;-4.48
11996;-2.81;1.46;8.86;-0.02;0.23;-0.43;-0.70;3.08;-1.40
12005;-2.66;1.51;8.65;-0.02;0.23;-0.43;0.70;1.89;0.49
12014;-2.66;1.61;8.56;-0.02;0.23;-0.42;2.38;-0.56;3.22
12023;-2.68;1.55;8.83;-0.02;0.23;-0.42;4.20;-3.01;5.32
12031;-2.88;1.62;8.74;-0.02;0.23;-0.42;4.13;-3.71;6.37
12040;-2.99;1.64;8.68;-0.01;0.22;-0.43;2.52;-4.55;5.95
12049;-2.88;1.66;8.67;-0.01;0.22;-0.43;1.75;-4.90;3.99
12058;-3.06;1.72;8.68;-0.01;0.22;-0.43;0.21;-5.32;1.40
12067;-3.24;1.82;8.73;-0.02;0.22;-0.42;-2.80;-4.97;-0.63
12076;-3.08;1.86;8.76;-0.02;0.22;-0.42;-6.79;-4.76;-3.43
12084;-3.13;1.90;8.88;-0.02;0.22;-0.42;-12.88;-3.22;-5.67
12093;-3.17;1.92;8.99;-0.02;0.23;-0.41;-17.85;-2.24;-8.26
12102;-3.13;1.72;9.12;-0.02;0.23;-0.41;-19.81;-0.42;-9.80
12111;-3.41;1.71;9.04;-0.02;0.23;-0.41;-19.81;0.21;-10.71
12120;-3.40;1.53;9.06;-0.02;0.23;-0.42;-17.08;-1.75;-9.38
12129;-3.30;1.31;9.02;-0.02;0.23;-0.42;-12.39;-2.94;-6.65
12137;-3.39;1.35;9.14;-0.02;0.22;-0.41;-7.70;-3.71;-5.25
12146;-3.22;1.36;9.07;-0.02;0.22;-0.41;-2.31;-4.55;-3.85
12155;-3.17;1.17;9.10;-0.02;0.22;-0.41;1.40;-3.85;-2.24
12164;-2.91;1.26;9.17;-0.01;0.22;-0.42;2.80;-2.03;-1.26
12173;-2.65;1.34;8.95;-0.01;0.22;-0.42;4.20;-0.63;0.28
12181;-2.83;1.46;8.99;-0.01;0.22;-0.42;5.81;2.31;0.35
12190;-2.86;1.51;8.72;-0.02;0.22;-0.42;5.60;3.71;-0.21
12199;-2.71;1.29;8.53;-0.02;0.22;-0.42;3.15;3.99;-0.42
12208;-2.79;1.33;8.46;-0.02;0.22;-0.42;-1.96;3.57;-0.70
12217;-2.86;1.49;8.48;-0.02;0.22;-0.42;-8.75;2.80;-1.26
12225;-2.81;1.45;8.59;-0.02;0.22;-0.42;-14.07;1.12;-1.82
12234;-2.60;1.52;8.50;-0.02;0.22;-0.42;-15.47;-0.14;-1.47
12243;-2.52;1.51;8.54;-0.02;0.22;-0.42;-11.55;-0.98;-0.98
12252;-2.63;1.39;8.33;-0.02;0.22;-0.42;-5.11;-3.43;1.96
12261;-2.31;1.31;8.31;-0.02;0.22;-0.42;4.34;-4.97;5.95
12269;-2.48;1.30;8.14;-0.01;0.22;-0.44;15.12;-7.91;9.66
12278;-2.89;1.38;8.37;-0.01;0.22;-0.44;20.51;-10.71;13.65
12287;-2.86;1.44;8.33;-0.01;0.22;-0.44;20.37;-9.52;12.25
12296;-3.43;1.68;8.37;-0.02;0.21;-0.42;14.63;-8.82;8.19
12305;-3.60;1.76;8.41;-0.02;0.21;-0.42;5.81;-10.36;4.48
12313;-3.66;1.77;8.69;-0.02;0.21;-0.42;-1.33;-10.22;0.84
12322;-3.98;1.82;8.97;-0.02;0.22;-0.43;-7.28;-10.57;-3.01
12331;-3.98;1.77;9.15;-0.02;0.22;-0.43;-13.58;-9.59;-4.20
12340;-4.03;1.75;9.20;-0.02;0.22;-0.43;-15.33;-7.21;-3.78
12349;-4.03;1.74;9.28;-0.03;0.22;-0.42;-11.62;-6.23;-1.96
12357;-3.82;1.54;9.17;-0.03;0.22;-0.42;-4.27;-6.23;1.82
12366;-3.84;1.48;8.97;-0.03;0.22;-0.42;5.74;-6.65;5.81
12375;-3.80;1.61;9.07;-0.02;0.22;-0.42;13.58;-6.93;8.40
12384;-3.85;1.61;9.20;-0.02;0.22;-0.42;16.45;-7.14;10.01
12393;-3.73;1.79;9.21;-0.02;0.22;-0.42;14.98;-6.79;9.03
12402;-3.55;1.86;9.26;-0.03;0.22;-0.43;10.08;-6.30;6.93
12410;-3.40;2.00;9.31;-0.03;0.22;-0.43;8.12;-4.62;3.29
12419;-3.35;2.13;9.17;-0.03;0.22;-0.42;8.61;-2.52;1.12
12428;-3.27;2.23;9.12;-0.03;0.22;-0.42;10.92;-1.40;0.07
12437;-3.35;2.32;9.12;-0.03;0.22;-0.42;12.32;-0.98;0.14
12446;-3.38;2.43;8.87;-0.03;0.22;-0.41;13.16;0.07;0.42
12454;-3.32;2.37;8.86;-0.03;0.22;-0.41;11.76;0.77;-1.05
12463;-3.37;2.12;8.61;-0.03;0.22;-0.41;7.56;0.14;-2.45
12472;-3.29;1.84;8.45;-0.04;0.23;-0.41;3.15;-0.14;-3.29
12481;-3.32;1.67;8.25;-0.04;0.23;-0.41;-17.78;-3.43;-2.52
12490;-3.32;1.54;8.28;-0.04;0.23;-0.41;-2.87;-5.74;-2.10
12499;-3.27;1.57;8.61;-0.04;0.23;-0.42;-4.20;-8.82;-3.71
12507;-3.42;1.70;8.82;-0.04;0.23;-0.42;-7.70;-11.41;-4.90
12516;-3.32;1.79;9.08;-0.04;0.23;-0.42;-8.68;-11.06;-4.76
12525;-3.29;1.88;9.30;-0.03;0.23;-0.42;-6.86;-7.98;-5.53
12534;-3.43;1.98;9.38;-0.03;0.23;-0.42;-4.69;-5.04;-6.09
12543;-3.48;2.15;9.32;-0.03;0.23;-0.42;-0.14;-3.15;-6.37
12551;-3.50;2.18;9.17;-0.04;0.23;-0.44;5.32;-2.80;-6.37
12560;-3.56;2.09;8.81;-0.04;0.23;-0.44;11.13;-3.71;-5.39
12569;-3.65;1.87;8.56;-0.04;0.23;-0.44;13.79;-5.11;-4.20
12578;-3.48;1.81;8.30;-0.04;0.23;-0.43;12.11;-7.35;-3.01
12587;-3.49;1.79;8.26;-0.04;0.23;-0.43;7.28;-7.70;-3.85
12596;-3.41;1.97;8.22;-0.04;0.23;-0.43;0.63;-9.38;-5.81
12604;-3.57;1.95;8.33;-0.04;0.23;-0.43;-8.33;-10.01;-9.66
12613;-5.49;1.97;8.45;-0.04;0.23;-0.43;-16.66;-10.43;-13.09
12622;-3.78;1.90;8.63;-0.04;0.23;-0.43;-21.63;-9.17;-14.07
12631;-3.83;1.88;8.78;-0.04;0.22;-0.43;-21.28;-5.74;-14.42
12640;-3.73;1.83;8.92;-0.04;0.22;-0.43;-16.52;-2.80;-13.58
12649;-3.83;1.91;8.82;-0.04;0.22;-0.43;-9.10;-2.52;-11.62
12657;-3.59;1.96;8.64;-0.04;0.23;-0.41;1.33;-2.66;-7.91
12666;-3.62;1.94;8.28;-0.04;0.23;-0.41;12.04;-4.34;-5.11
12675;-3.53;2.10;7.97;-0.04;0.23;-0.41;19.60;-7.21;-2.38
12684;-3.53;2.27;7.96;-0.03;0.23;-0.39;21.84;-11.06;-2.94
12693;-3.44;2.22;8.26;-0.03;0.23;-0.39;16.87;-13.65;-4.76
12701;-3.54;2.12;8.39;-0.03;0.23;-0.39;8.47;-14.42;-7.14
12710;-3.46;2.14;8.59;-0.04;0.23;-0.43;-0.63;-12.95;-10.99
12719;-3.46;2.18;8.66;-0.04;0.23;-0.43;-7.56;-10.15;-13.79
12728;-3.52;2.02;8.62;-0.04;0.23;-0.42;-10.85;-7.49;-16.03
12736;-3.61;2.05;8.62;-0.04;0.23;-0.42;-10.64;-6.58;-16.17
12745;-3.69;2.07;8.57;-0.04;0.23;-0.42;-6.65;-5.53;-15.19
12754;-3.61;2.00;8.65;-0.03;0.24;-0.42;2.31;-6.72;-14.56
12763;-3.79;1.66;8.50;-0.03;0.24;-0.42;7.56;-8.47;-13.23
12772;-3.90;1.80;8.58;-0.03;0.24;-0.42;8.47;-10.71;-11.83
12781;-3.53;1.76;8.71;-0.03;0.23;-0.43;7.70;-12.18;-11.13
12789;-3.69;1.84;8.89;-0.03;0.23;-0.43;7.63;-11.62;-11.62
12798;-3.62;1.90;8.85;-0.03;0.23;-0.43;5.04;-10.99;-12.39
12807;-3.69;1.97;8.82;-0.04;0.23;-0.43;3.71;-11.13;-14.77
12816;-3.68;1.94;8.97;-0.04;0.23;-0.43;1.96;-10.92;-16.31
12825;-3.52;1.77;8.82;-0.04;0.23;-0.43;1.89;-8.61;-17.43
12833;-3.47;1.80;8.84;-0.04;0.23;-0.42;1.96;-7.77;-17.57
12842;-3.60;1.73;9.06;-0.04;0.23;-0.42;3.36;-6.51;-17.99
12851;-3.78;1.62;9.03;-0.04;0.23;-0.42;3.36;-6.30;-18.06
12860;-3.80;1.42;8.94;-0.04;0.23;-0.42;3.50;-6.44;-15.26
12869;-3.76;1.22;9.01;-0.04;0.23;-0.42;5.25;-5.88;-13.58
12878;-3.77;1.06;8.80;-0.04;0.23;-0.42;7.56;-7.21;-10.92
12886;-3.79;1.00;8.64;-0.04;0.24;-0.42;8.47;-7.84;-9.03
12895;-3.71;1.09;8.69;-0.04;0.24;-0.42;6.86;-8.82;-7.98
12904;-3.78;1.21;8.72;-0.04;0.24;-0.42;2.24;-9.45;-7.98
12913;-3.63;1.53;8.67;-0.04;0.25;-0.42;-2.80;-8.47;-10.57
12922;-3.92;1.77;9.17;-0.04;0.25;-0.42;-9.52;-7.35;-14.35
12930;-3.73;1.74;9.22;-0.04;0.25;-0.42;-13.30;-5.88;-16.31
12939;-3.57;1.67;9.22;-0.04;0.24;-0.42;-12.11;-5.39;-16.80
12948;-3.55;1.72;8.79;-0.04;0.24;-0.42;-7.00;-4.90;-14.63
12957;-3.57;1.54;8.48;-0.04;0.24;-0.42;0.98;-6.37;-10.43
12966;-3.46;1.34;8.36;-0.04;0.24;-0.43;5.81;-8.96;-7.28
12975;-3.55;1.72;8.43;-0.04;0.24;-0.43;5.32;-11.48;-6.09
12984;-3.68;1.82;8.68;-0.04;0.24;-0.43;2.10;-13.65;-7.21
12992;-1.87;1.94;8.79;-0.04;0.24;-0.43;0.07;-13.16;-8.26
13001;-3.79;1.91;8.89;-0.04;0.24;-0.43;-1.12;-13.72;-9.31
13010;-3.68;2.02;8.84;-0.04;0.24;-0.43;-0.56;-12.88;-9.59
13019;-3.61;2.09;8.87;-0.04;0.24;-0.43;3.15;-11.69;-10.92
13028;-3.32;2.10;8.82;-0.04;0.24;-0.43;6.86;-11.06;-13.16
13036;-3.47;2.18;8.51;-0.05;0.25;-0.43;6.09;-9.73;-15.33
13045;-3.55;1.94;8.45;-0.05;0.25;-0.43;-1.12;-8.96;-16.94
13054;-3.73;1.51;8.45;-0.05;0.25;-0.43;-7.77;-9.52;-18.48
13063;-3.92;1.33;8.47;-0.05;0.25;-0.44;-11.90;-10.08;-18.41
13072;-3.80;1.32;8.52;-0.05;0.25;-0.44;-13.93;-10.85;-17.08
13080;-3.90;1.16;8.51;-0.05;0.25;-0.44;-11.83;-11.55;-15.47
13089;-3.91;1.14;8.48;-0.05;0.24;-0.43;-13.30;-11.97;-15.40
13098;-3.85;1.02;8.58;-0.05;0.24;-0.43;-17.99;-10.22;-14.84
13107;-4.01;0.90;8.53;-0.05;0.24;-0.43;-20.86;-10.29;-13.30
13116;-4.08;0.65;8.72;-0.04;0.24;-0.44;-18.97;-9.52;-9.66
13125;-4.13;0.89;8.85;-0.04;0.24;-0.44;-14.63;-7.21;-5.18
13133;-4.03;1.18;9.18;-0.04;0.24;-0.44;-6.09;-4.34;-1.26
13142;-4.11;1.46;8.86;-0.05;0.23;-0.43;1.68;-1.82;2.45
13151;-4.10;1.95;8.62;-0.05;0.23;-0.43;4.69;17.64;5.39
13160;-4.01;2.24;8.43;-0.05;0.23;-0.43;4.20;0.70;4.41
13169;-3.90;2.32;8.15;-0.05;0.23;-0.42;1.47;-0.70;2.10
13177;-3.84;2.18;8.03;-0.05;0.23;-0.42;-3.01;-2.31;-1.05
13186;-3.75;1.92;8.06;-0.05;0.23;-0.42;-9.03;-4.69;-2.59
13195;-3.76;1.89;8.29;-0.04;0.23;-0.43;-14.42;-5.88;-3.43
13204;-3.95;1.67;8.69;-0.04;0.23;-0.43;-17.92;-6.72;-2.24
13213;-4.07;1.71;8.94;-0.04;0.23;-0.43;-18.41;-4.83;-0.49
13222;-4.16;3.63;9.10;-0.05;0.23;-0.42;-13.79;-2.45;2.31
13230;-3.92;2.10;8.97;-0.05;0.23;-0.42;-6.09;1.82;5.25
13239;-4.13;2.28;8.50;-0.05;0.23;-0.42;-0.28;4.13;6.02
13248;-3.89;2.57;8.18;-0.05;0.22;-0.42;-1.12;5.04;4.69
13257;-3.93;2.76;8.11;-0.05;0.22;-0.42;-6.37;3.92;0.91
13266;-4.03;2.76;8.11;-0.05;0.22;-0.42;-16.17;0.56;-2.24
13274;-3.76;2.68;8.07;-0.05;0.22;-0.42;-21.49;-2.45;-2.66
13283;-3.93;2.78;8.63;-0.05;0.22;-0.42;-17.78;-3.36;-2.10
13292;-3.76;2.96;8.59;-0.05;0.22;-0.42;-11.69;-4.41;-0.98
13301;-3.90;3.04;8.76;-0.05;0.22;-0.42;-8.26;-2.80;-0.70
13310;-3.91;3.16;8.71;-0.05;0.22;-0.42;-5.88;-2.17;-0.77
13318;-3.80;2.71;8.56;-0.05;0.22;-0.41;-4.41;-3.29;-1.89
13327;-4.12;2.49;8.54;-0.05;0.22;-0.41;-5.81;-3.50;-2.45
13336;-4.07;2.23;8.64;-0.05;0.22;-0.41;-7.84;-3.29;-2.03
13345;-4.13;2.16;9.02;-0.05;0.21;-0.41;-6.58;-2.73;-2.10
13354;-4.16;2.07;8.95;-0.05;0.21;-0.41;-7.35;-2.17;-1.61
13363;-4.11;2.35;8.95;-0.05;0.21;-0.41;-7.70;0.91;-0.14
13371;-3.98;2.53;8.79;-0.05;0.22;-0.41;-4.48;1.89;0.84
13380;-3.71;2.84;8.57;-0.05;0.22;-0.41;0.07;1.96;1.19
13389;-3.60;2.80;8.37;-0.05;0.22;-0.41;2.17;0.28;0.00
13398;-3.68;2.68;8.10;-0.05;0.22;-0.42;0.42;-2.52;-2.45
13406;-3.75;2.63;8.26;-0.05;0.22;-0.42;-4.90;-4.41;-4.69
13415;-3.73;2.29;8.50;-0.05;0.22;-0.42;-8.54;-4.83;-5.81
13424;-3.92;1.80;8.62;-0.04;0.23;-0.41;-10.57;-4.69;-6.02
13433;-4.00;1.59;8.73;-0.04;0.23;-0.41;-10.22;-3.92;-4.20
13442;-3.96;1.64;8.77;-0.04;0.23;-0.41;-4.48;-2.10;-1.40
13450;-3.84;1.86;8.64;-0.05;0.23;-0.42;-0.21;-0.49;0.28
13459;-3.88;1.95;8.48;-0.05;0.23;-0.42;0.42;0.77;1.40
13468;-3.80;2.20;8.40;-0.05;0.23;-0.42;0.21;0.70;1.82
13477;-3.72;2.18;8.48;-0.05;0.23;-0.41;1.75;1.33;0.91
13486;-4.03;2.32;8.40;-0.05;0.23;-0.41;0.84;-2.03;2.03
13494;-3.65;2.00;8.56;-0.05;0.23;-0.41;1.40;0.07;3.08
13503;-3.82;2.18;8.43;-0.05;0.23;-0.41;2.87;0.98;1.89
13512;-3.86;2.20;8.68;-0.05;0.23;-0.41;3.22;2.24;2.87
13521;-3.80;2.19;8.29;-0.05;0.23;-0.41;2.66;2.87;2.66
13530;-3.61;2.08;8.19;-0.05;0.22;-0.41;1.12;2.24;2.17
13538;-3.78;2.07;8.08;-0.05;0.22;-0.41;-1.26;1.33;2.03
13547;-3.76;1.97;8.04;-0.05;0.22;-0.41;-3.92;-0.70;1.89
13556;-3.78;1.78;8.22;-0.05;0.22;-0.41;-5.67;-2.66;2.38
13565;-3.96;1.92;8.60;-0.05;0.22;-0.41;-4.41;-2.73;4.20
13574;-3.94;2.23;8.78;-0.05;0.22;-0.41;-0.63;-2.10;5.60
13582;-3.85;2.32;8.91;-0.05;0.22;-0.42;3.43;0.07;6.37
13591;-3.57;2.63;8.61;-0.05;0.22;-0.42;5.18;1.26;5.46
13600;-3.62;2.63;8.14;-0.04;0.22;-0.42;1.89;3.01;2.31
13609;-3.94;2.38;7.99;-0.04;0.22;-0.42;-3.43;2.17;-0.49
13618;-4.13;2.38;8.12;-0.04;0.22;-0.42;-8.96;0.56;-1.61
13627;-4.13;2.22;8.36;-0.05;0.22;-0.42;-9.73;-0.70;-0.77
13635;-4.30;2.20;8.58;-0.05;0.22;-0.42;-7.14;-0.49;2.31
13644;-4.13;2.54;8.78;-0.05;0.22;-0.42;-2.24;1.26;5.81
13653;-4.08;2.66;8.65;-0.05;0.21;-0.42;4.41;2.31;7.91
13662;-4.08;2.85;8.31;-0.05;0.21;-0.42;8.05;3.22;10.08
13670;-3.95;2.94;8.18;-0.05;0.21;-0.42;13.30;4.55;11.41
13679;-4.15;2.99;8.13;-0.04;0.23;-0.42;18.41;3.15;11.20
13688;-4.13;3.12;8.32;-0.04;0.23;-0.42;18.34;2.03;10.36
13697;-4.09;3.16;8.35;-0.04;0.23;-0.42;15.47;2.31;7.07
13706;-4.10;2.94;8.32;-0.04;0.23;-0.42;10.92;1.75;4.41
13715;-3.95;2.42;8.41;-0.04;0.23;-0.42;6.02;0.63;1.82
13723;-4.00;1.74;8.26;-0.04;0.23;-0.42;0.70;1.26;0.42
13732;-4.34;1.33;8.23;-0.05;0.22;-0.41;-6.65;1.19;0.98
13741;-4.34;0.98;8.51;-0.05;0.22;-0.41;-12.25;3.15;5.04
13750;-4.14;1.36;8.60;-0.05;0.22;-0.41;-10.01;5.46;10.22
13759;-3.88;1.74;8.70;-0.05;0.22;-0.41;-1.68;7.49;14.84
13767;-3.85;1.97;8.51;-0.05;0.22;-0.41;6.58;8.26;17.36
13776;-3.86;2.37;8.31;-0.05;0.22;-0.41;14.84;8.33;20.44
13785;-3.89;2.32;8.38;-0.05;0.22;-0.41;20.65;6.37;21.42
13794;-3.80;2.23;8.33;-0.05;0.22;-0.41;23.38;4.55;21.42
13803;-3.96;1.95;8.45;-0.05;0.22;-0.41;20.72;3.78;19.60
13812;-4.01;1.36;8.35;-0.04;0.23;-0.41;12.39;2.52;17.71
13820;-4.24;0.77;8.32;-0.04;0.23;-0.41;-0.84;3.08;16.38
13829;-4.36;0.26;8.33;-0.04;0.23;-0.41;-17.64;4.34;16.10
13838;-4.56;-0.22;8.55;-0.06;0.23;-0.42;-31.36;5.39;16.66
13847;-4.74;-0.16;8.49;-0.06;0.23;-0.42;-39.76;8.40;23.45
13856;-4.48;0.32;8.54;-0.06;0.23;-0.42;-33.95;12.25;30.24
13864;-4.44;1.20;8.62;-0.05;0.23;-0.41;-20.44;14.28;37.45
13873;-4.10;2.25;8.71;-0.05;0.23;-0.41;-3.71;17.92;44.38
13882;-4.00;2.79;8.43;-0.05;0.23;-0.42;11.69;17.22;48.44
13891;-3.81;3.03;8.20;-0.05;0.22;-0.42;25.83;16.17;49.42
13900;-3.79;3.14;8.06;-0.05;0.22;-0.42;31.01;14.56;47.46
13908;-3.53;2.91;8.07;-0.06;0.22;-0.41;27.58;13.72;44.03
13917;-3.49;2.80;8.03;-0.06;0.22;-0.41;17.36;13.58;38.64
13926;-3.48;2.60;8.13;-0.06;0.22;-0.41;3.71;11.90;32.13
13935;-3.50;2.36;8.31;-0.06;0.23;-0.41;-7.42;10.50;26.39
13944;-3.57;2.10;8.22;-0.06;0.23;-0.41;-17.99;9.94;22.12
13952;-3.68;2.12;8.26;-0.06;0.23;-0.41;-26.25;8.89;20.86
13961;-3.34;2.50;8.33;-0.06;0.22;-0.40;-22.05;7.56;20.72
13970;-3.52;2.60;8.58;-0.06;0.22;-0.40;-13.72;5.11;19.95
13979;-3.75;2.86;8.48;-0.06;0.22;-0.40;-9.17;3.99;19.81
13988;-3.78;3.05;8.83;-0.05;0.23;-0.42;-7.35;4.76;18.20
13996;-3.89;2.83;8.87;-0.05;0.23;-0.42;-6.86;6.02;14.91
14005;-3.98;2.66;9.09;-0.05;0.23;-0.42;-7.07;6.79;12.74
14014;-3.78;2.51;9.17;-0.05;0.21;-0.41;-6.86;8.26;10.92
14023;-5.48;2.48;9.01;-0.05;0.21;-0.41;-5.25;10.01;8.96
14032;-3.80;2.23;8.86;-0.05;0.21;-0.41;-5.32;9.87;7.28
14040;-3.70;2.14;8.86;-0.05;0.22;-0.40;-5.53;8.96;6.65
14049;-3.64;1.92;8.69;-0.05;0.22;-0.40;-5.88;8.05;6.65
14058;-1.92;1.87;8.74;-0.05;0.22;-0.40;-4.06;8.82;6.09
14067;-3.78;1.84;8.65;-0.05;0.22;-0.41;-4.34;8.89;4.83
14076;-3.87;1.80;8.66;-0.05;0.22;-0.41;-3.92;8.82;3.57
14084;-3.91;1.84;8.72;-0.05;0.22;-0.41;-3.08;9.87;0.77
14093;-4.23;1.66;8.83;-0.05;0.22;-0.40;-5.18;10.71;-0.14
14102;-4.19;1.40;8.99;-0.05;0.22;-0.40;-8.68;10.57;2.17
14111;-4.07;1.04;8.73;-0.05;0.22;-0.40;-11.20;12.53;6.58
14120;-4.08;1.06;8.37;-0.05;0.21;-0.42;-12.53;14.28;8.47
14128;-4.00;1.15;8.18;-0.05;0.21;-0.42;-12.60;13.30;10.92
14137;-3.93;1.35;8.08;-0.05;0.21;-0.42;-13.02;11.13;10.85
14146;-3.80;1.62;8.31;-0.05;0.22;-0.41;-12.81;8.89;10.08
14155;-3.81;1.86;8.62;-0.05;0.22;-0.41;-10.85;7.70;8.12
14164;-3.63;2.08;8.56;-0.05;0.22;-0.41;-7.56;8.12;5.46
14173;-3.57;1.97;8.79;-0.04;0.21;-0.41;-4.06;8.89;4.06
14181;-3.77;1.96;8.59;-0.04;0.21;-0.41;-3.15;9.52;7.00
14190;-3.65;1.78;8.58;-0.04;0.21;-0.41;-5.11;10.01;10.57
14199;-3.77;1.74;8.32;-0.04;0.21;-0.41;-8.12;9.17;13.58
14208;-3.87;1.77;8.34;-0.04;0.21;-0.41;-11.48;8.33;15.96
14217;-3.83;1.72;8.43;-0.05;0.20;-0.40;-14.35;7.00;16.59
14226;-3.83;1.85;8.65;-0.05;0.20;-0.40;-15.61;5.67;15.47
14234;-3.94;1.98;8.76;-0.05;0.20;-0.40;-16.73;4.97;14.35
14243;-3.76;1.95;8.85;-0.04;0.21;-0.39;-16.17;3.99;13.23
14252;-3.72;1.95;8.97;-0.04;0.21;-0.39;-13.79;4.90;12.11
14261;-3.70;1.99;8.87;-0.04;0.21;-0.39;-11.41;5.74;11.76
14270;-3.52;2.00;8.82;-0.05;0.20;-0.40;-8.68;6.30;11.06
14278;-3.41;1.95;8.79;-0.05;0.20;-0.40;-6.58;8.68;11.55
14287;-3.44;1.93;8.64;-0.05;0.20;-0.40;-3.43;8.68;12.25
14296;-3.42;1.92;8.56;-0.05;0.20;-0.40;-0.07;7.14;14.98
14305;-3.49;1.93;8.67;-0.05;0.20;-0.40;2.17;3.85;19.95
14314;-3.48;2.01;8.65;-0.05;0.20;-0.40;3.57;1.96;21.70
14323;-3.29;2.09;8.93;-0.04;0.20;-0.40;3.99;1.05;22.26
14331;-3.26;2.05;8.81;-0.04;0.20;-0.40;2.94;1.82;19.81
14340;-3.12;2.05;8.88;-0.04;0.20;-0.40;0.77;2.31;17.71
14349;-3.08;2.13;8.57;-0.05;0.20;-0.40;-2.45;2.03;15.33
14358;-3.22;2.18;8.59;-0.05;0.20;-0.40;-4.13;1.26;11.90
14366;-3.19;2.15;8.67;-0.05;0.20;-0.40;-3.64;0.77;9.31
14375;-3.18;2.31;8.77;-0.05;0.21;-0.41;1.05;0.49;7.98
14384;-3.37;2.19;8.74;-0.05;0.21;-0.41;4.13;-0.63;7.35
14393;-3.42;2.30;8.86;-0.05;0.21;-0.41;6.86;-1.54;6.09
14402;-3.50;2.15;8.89;-0.05;0.20;-0.39;6.86;-1.96;8.47
14410;-3.52;2.06;8.74;-0.05;0.20;-0.39;2.17;-1.61;13.09
14419;-3.45;2.07;8.69;-0.05;0.20;-0.39;-0.49;-0.49;14.98
14428;-3.37;1.99;8.56;-0.05;0.20;-0.40;-1.33;2.03;15.40
14437;-3.55;2.07;8.42;-0.05;0.20;-0.40;-1.54;1.96;14.63
14446;-3.56;1.86;8.30;-0.05;0.20;-0.40;-1.82;-0.14;13.93
14454;-3.15;1.86;8.28;-0.05;0.20;-0.40;-1.19;-1.89;12.25
14463;-3.68;2.19;8.52;-0.05;0.20;-0.40;-0.63;-5.32;10.78
14472;-3.32;2.21;8.65;-0.05;0.20;-0.40;-0.28;-7.28;9.73
14481;-3.22;2.40;9.02;-0.06;0.20;-0.41;-0.56;-6.65;5.95
14490;-3.45;2.63;8.99;-0.06;0.20;-0.41;-1.26;-5.18;0.35
14498;-3.41;2.71;9.40;-0.06;0.20;-0.41;-1.26;-2.52;-4.27
14507;-3.52;2.64;9.55;-0.06;0.20;-0.41;-1.75;-0.98;-7.98
14516;-3.50;2.40;9.71;-0.06;0.20;-0.41;-2.87;0.84;-7.70
14525;-3.82;2.30;9.63;-0.05;0.20;-0.39;-1.89;3.99;-6.51
14534;-3.73;2.11;9.39;-0.05;0.20;-0.39;0.35;3.43;-3.22
14542;-3.50;1.93;9.12;-0.05;0.20;-0.39;2.24;3.50;1.75
14551;-3.45;1.87;9.02;-0.06;0.21;-0.40;4.90;3.71;5.25
14560;-3.37;1.88;8.84;-0.06;0.21;-0.40;8.40;1.75;6.93
14569;-3.31;1.81;8.83;-0.06;0.21;-0.40;10.64;-0.42;8.26
14578;-3.31;1.94;8.90;-0.05;0.21;-0.40;12.53;-2.03;7.77
14586;-3.35;1.92;8.74;-0.05;0.21;-0.40;11.48;-2.73;5.81
14595;-3.35;1.97;8.82;-0.05;0.21;-0.40;7.70;-2.94;2.87
14604;-3.47;1.96;9.00;-0.05;0.21;-0.42;3.50;-2.31;-0.14
14613;-3.42;2.03;9.23;-0.05;0.21;-0.42;-2.45;-0.70;-3.29
14622;-3.44;2.01;9.21;-0.05;0.21;-0.42;-6.02;1.40;-5.04
14631;-3.32;1.71;9.01;-0.05;0.22;-0.40;-5.32;4.48;-5.18
14639;-3.35;1.51;8.79;-0.05;0.22;-0.40;-2.38;6.44;-2.03
14648;-3.40;1.49;8.59;-0.05;0.22;-0.40;1.12;5.81;2.80
14657;-3.29;1.51;8.36;-0.05;0.21;-0.40;5.32;1.54;7.21
14666;-3.42;1.65;8.22;-0.05;0.21;-0.40;7.84;-3.08;8.47
14675;-3.48;1.87;8.37;-0.05;0.21;-0.40;7.21;-6.02;7.49
14683;-3.50;1.85;8.54;-0.06;0.20;-0.41;2.66;-7.77;6.16
14692;-3.45;1.88;8.75;-0.06;0.20;-0.41;-2.73;-7.77;4.76
14701;-3.47;1.84;8.89;-0.06;0.20;-0.41;-7.42;-6.51;3.22
14710;-3.46;1.96;8.71;-0.06;0.21;-0.40;-9.24;-4.62;1.89
14719;-3.42;1.89;9.07;-0.06;0.21;-0.40;-8.68;-3.36;0.63
14727;-3.29;1.82;8.97;-0.06;0.21;-0.40;-7.70;-0.98;-17.85
14736;-3.27;1.84;9.04;-0.07;0.21;-0.39;-5.74;0.84;-0.91
14745;-3.39;2.01;9.00;-0.07;0.21;-0.39;-3.71;0.91;-1.54
14754;-3.36;1.98;8.99;-0.07;0.21;-0.39;-2.03;-0.42;-1.26
14763;-3.17;1.90;9.04;-0.06;0.21;-0.40;-0.35;-1.75;0.98
14772;-3.17;2.02;8.78;-0.06;0.21;-0.40;2.17;-3.36;1.89
14780;-3.14;1.92;8.82;-0.06;0.21;-0.40;4.69;-4.48;2.52
14789;-2.97;1.88;8.95;-0.07;0.21;-0.40;5.81;-5.32;2.45
14798;-3.12;2.03;8.84;-0.07;0.21;-0.40;5.18;-6.02;1.26
14807;-3.01;2.07;8.94;-0.06;0.20;-0.39;2.73;-6.37;-0.42
14816;-2.96;1.95;9.10;-0.06;0.20;-0.39;0.00;-4.97;-1.75
14825;-3.00;1.87;9.20;-0.06;0.20;-0.39;-0.35;-3.43;-2.45
14833;-2.96;1.90;9.00;-0.06;0.20;-0.41;1.12;-2.17;-2.87
14842;-2.96;1.72;8.70;-0.06;0.20;-0.41;2.94;-0.98;-2.94
14851;-3.04;1.74;8.61;-0.06;0.20;-0.41;6.16;-0.56;-3.22
14860;-3.09;1.84;8.53;-0.06;0.21;-0.40;8.61;-1.47;-3.22
14869;-3.16;1.74;8.48;-0.06;0.21;-0.40;8.54;-3.15;-3.01
14877;-3.01;1.52;8.48;-0.06;0.21;-0.40;5.95;-4.62;-0.91
14886;-2.98;1.51;8.58;-0.06;0.21;-0.41;3.64;-4.83;0.07
14895;-3.07;1.57;8.71;-0.06;0.21;-0.41;1.19;-4.76;0.63
14904;-3.04;1.66;8.73;-0.06;0.21;-0.41;-0.28;-4.83;0.56
14913;-3.14;1.65;8.71;-0.06;0.22;-0.40;-1.68;-4.34;-0.77
14922;-3.12;1.67;8.85;-0.06;0.22;-0.40;-1.40;-3.92;-1.33
14930;-3.12;1.57;8.75;-0.06;0.22;-0.40;0.07;-4.27;-1.33
14939;-3.14;1.65;8.66;-0.06;0.20;-0.40;2.45;-4.76;-1.61
14948;-3.29;1.73;8.69;-0.06;0.20;-0.40;4.97;-5.25;-1.12
14957;-3.40;1.73;8.73;-0.06;0.20;-0.40;5.60;-6.79;-1.19
14965;-3.40;1.77;8.92;-0.06;0.20;-0.40;4.97;-7.56;-1.12
14974;-3.42;1.78;8.94;-0.06;0.20;-0.40;3.64;-7.98;-1.40
14983;-3.45;1.72;8.86;-0.06;0.20;-0.40;1.61;-6.86;-1.82
14992;-3.37;1.67;8.92;-0.06;0.22;-0.40;-0.28;-6.09;-2.66
15001;-3.45;1.67;8.94;-0.06;0.22;-0.40;-3.29;-4.83;-2.38
complete
