Time(ms);AccX(m/s^2);AccY(m/s^2);AccZ(m/s^2);MagX(gauss);MagY(gauss);MagZ(gauss);GyroX(dps);GyroY(dps);GyroZ(dps)
33;-4.58;-0.32;8.56;-0.08;0.34;-0.47;-2.45;-5.32;0.35
42;-4.44;-0.22;8.48;-0.08;0.34;-0.47;-2.66;-5.39;0.49
51;-4.51;-0.12;8.51;-0.08;0.34;-0.47;-2.45;-5.04;0.28
59;-4.39;-0.28;8.46;-0.08;0.34;-0.47;-2.31;-5.04;-0.07
68;-4.45;-0.27;8.60;-0.08;0.34;-0.47;-2.94;-4.48;-0.91
77;-4.55;-0.27;8.48;-0.08;0.34;-0.47;-2.94;-4.20;-0.77
86;-4.57;-0.26;8.44;-0.08;0.34;-0.47;-2.73;-4.55;-1.19
95;-4.46;-0.43;8.37;-0.08;0.34;-0.47;-2.45;-4.34;-1.40
104;-4.63;-0.43;8.48;-0.08;0.34;-0.47;-1.89;-4.13;-0.91
112;-4.49;-0.38;8.48;-0.08;0.33;-0.46;-0.98;-3.64;-1.12
121;-4.57;-0.40;8.38;-0.08;0.33;-0.46;-0.84;-2.80;-0.70
130;-4.59;-0.39;8.43;-0.08;0.33;-0.46;-0.91;-2.17;-0.56
139;-4.65;-0.47;8.52;-0.08;0.33;-0.47;-1.40;-2.66;-1.40
148;-4.60;-0.47;8.36;-0.08;0.33;-0.47;-2.24;-2.80;-1.33
156;-4.56;-0.48;8.41;-0.08;0.33;-0.47;-2.17;-2.52;-1.05
165;-4.60;-0.42;8.52;-0.08;0.33;-0.47;-1.75;-2.59;-0.49
174;-4.57;-0.45;8.53;-0.08;0.33;-0.47;-0.63;-0.70;-0.14
183;-4.52;-0.29;8.54;-0.08;0.34;-0.46;-0.49;-0.07;-17.92
191;-4.43;-0.28;8.55;-0.08;0.34;-0.46;-0.49;0.98;0.00
200;-4.42;-0.23;8.39;-0.08;0.34;-0.46;-0.49;1.05;-0.28
209;-4.38;-0.30;8.52;-0.09;0.34;-0.47;-0.28;1.47;-0.84
218;-4.55;-0.29;8.51;-0.09;0.34;-0.47;0.00;0.21;-1.47
227;-4.48;-0.23;8.53;-0.09;0.34;-0.47;0.21;-0.70;-1.05
235;-4.41;-0.27;8.48;-0.08;0.34;-0.46;-0.49;-1.05;-1.05
244;-4.55;-0.29;8.58;-0.08;0.34;-0.46;-0.91;-0.91;-0.84
253;-4.47;-0.38;8.70;-0.08;0.34;-0.46;0.49;-0.63;-0.35
262;-4.51;-0.43;8.59;-0.09;0.34;-0.46;1.68;-0.56;0.00
271;-4.48;-0.36;8.73;-0.09;0.34;-0.46;1.19;0.00;0.07
279;-4.53;-0.39;8.71;-0.09;0.34;-0.46;0.28;0.35;0.77
288;-4.63;-0.45;8.79;-0.09;0.34;-0.46;-0.56;-0.35;0.28
297;-4.59;-0.38;8.74;-0.09;0.34;-0.46;-0.56;-1.54;0.28
306;-4.59;-0.34;8.84;-0.09;0.34;-0.46;-0.63;-1.82;0.70
315;-4.49;-0.32;8.79;-0.08;0.34;-0.47;0.00;-1.89;0.84
323;-4.45;-0.32;8.90;-0.08;0.34;-0.47;0.14;-2.45;0.14
332;-4.40;-0.29;8.90;-0.08;0.34;-0.47;0.14;-3.22;-0.42
341;-4.39;-0.25;8.93;-0.09;0.35;-0.48;-0.21;-3.29;-0.42
350;-4.34;-0.23;8.97;-0.09;0.35;-0.48;-0.28;-2.87;-0.42
358;-4.37;-0.19;8.89;-0.09;0.35;-0.48;-0.14;-3.36;-0.42
367;-4.29;-0.24;8.93;-0.08;0.34;-0.46;1.26;-3.43;0.00
376;-4.24;-0.31;8.84;-0.08;0.34;-0.46;1.61;-4.20;0.49
385;-4.24;-0.37;8.87;-0.08;0.34;-0.46;2.10;-4.62;0.56
393;-4.36;-0.39;9.07;-0.09;0.33;-0.46;1.19;-5.04;0.42
402;-4.20;-0.33;9.07;-0.09;0.33;-0.46;1.19;-4.83;0.21
411;-4.15;-0.45;9.01;-0.09;0.33;-0.46;0.14;-3.99;-0.21
420;-4.17;-0.34;8.97;-0.09;0.34;-0.46;-0.14;-3.29;-0.91
429;-4.11;-0.51;9.02;-0.09;0.34;-0.46;-0.91;-2.38;-1.05
437;-4.15;-0.57;8.89;-0.09;0.34;-0.46;-0.91;-1.40;-0.84
446;-4.23;-0.54;9.02;-0.09;0.33;-0.47;-0.49;-0.49;0.14
455;-4.21;-0.58;8.90;-0.09;0.33;-0.47;1.26;0.35;0.77
464;-4.21;-0.62;8.75;-0.09;0.33;-0.46;2.24;1.26;1.26
472;-4.24;-0.65;8.76;-0.08;0.34;-0.46;2.59;0.56;1.19
481;-4.16;-0.70;8.87;-0.08;0.34;-0.46;1.54;0.49;1.47
490;-4.00;-0.62;8.73;-0.08;0.34;-0.47;0.07;0.63;1.75
499;-4.11;-0.60;8.79;-0.08;0.34;-0.47;-1.54;1.26;0.28
507;-4.12;-0.54;8.58;-0.08;0.34;-0.47;-1.89;2.52;-0.77
516;-4.12;-0.67;8.76;-0.08;0.35;-0.46;-1.68;3.92;-1.96
525;-4.22;-0.65;8.59;-0.08;0.35;-0.46;-2.03;5.18;-1.47
534;-4.13;-0.57;8.63;-0.08;0.35;-0.46;-1.19;5.46;-0.91
543;-4.13;-0.55;8.43;-0.09;0.34;-0.46;-1.89;4.69;-0.70
551;-4.04;-0.45;8.56;-0.09;0.34;-0.46;-3.15;3.64;-0.28
560;-4.01;-0.34;8.45;-0.09;0.34;-0.46;-4.20;3.08;-0.21
569;-3.93;-0.19;8.61;-0.08;0.34;-0.47;-6.02;2.52;-0.70
578;-4.02;-0.24;8.46;-0.08;0.34;-0.47;-6.44;2.59;-2.10
587;-3.62;-0.03;8.54;-0.08;0.34;-0.47;-7.14;1.68;-4.27
595;-4.02;-0.02;8.48;-0.08;0.33;-0.46;-8.82;4.90;-4.13
604;-3.98;-0.01;8.68;-0.08;0.33;-0.46;-10.85;3.22;-6.09
613;-3.75;0.08;8.56;-0.08;0.33;-0.46;-12.46;3.99;-7.63
622;-3.84;-0.04;8.61;-0.08;0.33;-0.46;-13.02;3.22;-8.96
631;-3.71;-0.03;8.66;-0.08;0.33;-0.46;-10.50;1.54;-8.54
639;-3.70;-0.06;8.74;-0.08;0.33;-0.46;-7.07;-0.21;-7.77
648;-3.60;-0.08;8.74;-0.09;0.33;-0.47;-3.57;-2.24;-5.53
657;-3.60;-0.15;8.75;-0.09;0.33;-0.47;-2.03;-3.64;-4.48
666;-3.45;-0.14;8.67;-0.09;0.33;-0.47;-2.59;-4.90;-3.57
675;-3.47;-0.01;8.69;-0.07;0.34;-0.47;-2.94;-7.98;-6.02
683;-3.41;-0.02;8.96;-0.07;0.34;-0.47;-4.41;-7.98;-4.62
692;-3.55;-0.04;9.07;-0.07;0.34;-0.47;-5.53;-8.96;-5.95
701;-3.35;-0.09;9.10;-0.08;0.34;-0.47;-4.83;-7.28;-7.35
710;-3.70;-0.14;9.07;-0.08;0.34;-0.47;-5.18;-6.37;-8.96
719;-3.47;-0.20;8.81;-0.08;0.34;-0.47;-5.32;-6.86;-9.80
727;-3.45;-0.43;8.86;-0.08;0.33;-0.46;-4.13;-8.82;-8.75
736;-3.55;-0.51;8.84;-0.08;0.33;-0.46;-2.31;-10.78;-5.60
745;-3.47;-0.64;8.93;-0.08;0.33;-0.46;1.40;-13.23;-1.47
754;-3.57;-0.64;8.85;-0.09;0.33;-0.47;7.14;-15.54;1.89
763;-3.49;-0.65;8.93;-0.09;0.33;-0.47;10.92;-17.29;3.22
771;-3.55;-0.65;8.85;-0.09;0.34;-0.45;13.44;-16.94;5.25
780;-3.49;-0.60;8.69;-0.09;0.34;-0.45;11.69;-16.10;4.76
789;-3.63;-0.31;8.71;-0.09;0.34;-0.45;8.05;-14.56;3.57
798;-3.36;-0.59;9.10;-0.09;0.34;-0.46;4.06;-14.21;1.68
806;-3.37;-0.17;9.23;-0.09;0.34;-0.46;1.40;-13.93;-4.83
815;-3.18;-0.20;9.72;-0.09;0.34;-0.46;1.47;-12.04;-8.82
824;-3.09;0.04;9.99;-0.09;0.34;-0.46;4.83;-10.29;-11.62
833;-2.56;0.29;9.89;-0.09;0.34;-0.46;12.67;-9.94;-9.59
842;-1.65;0.94;10.02;-0.09;0.34;-0.46;26.67;-9.24;-9.66
850;-0.69;1.39;10.14;-0.10;0.34;-0.48;48.86;-8.54;-7.77
859;0.83;2.84;10.37;-0.10;0.34;-0.48;63.42;-3.50;-9.45
868;2.96;4.34;10.48;-0.10;0.34;-0.48;58.66;13.65;-25.83
877;4.34;6.45;9.99;-0.10;0.35;-0.47;41.09;44.94;-60.69
886;5.08;7.54;8.65;-0.10;0.35;-0.47;-5.74;77.98;-110.95
894;4.30;8.42;5.23;-0.10;0.35;-0.47;-52.64;102.48;-165.62
903;1.46;8.54;2.01;-0.06;0.34;-0.46;-88.76;105.77;-216.51
912;-2.32;7.69;-0.89;-0.06;0.34;-0.46;-113.54;63.00;-243.81
921;-6.54;6.00;-3.48;-0.06;0.34;-0.46;-114.17;-11.48;-263.06
930;-11.54;3.95;-4.24;-0.06;0.32;-0.46;-111.44;-112.07;-264.25
939;-16.95;0.70;-2.07;-0.06;0.32;-0.46;-95.97;-193.27;-241.99
947;-20.11;-2.33;2.35;-0.06;0.32;-0.46;-70.63;-253.82;-216.09
956;-23.53;-6.82;7.12;-0.08;0.31;-0.45;-43.05;-303.94;-190.40
965;-26.09;-12.53;12.53;-0.08;0.31;-0.45;-35.07;-290.92;-166.53
974;-24.04;-19.45;18.48;-0.08;0.31;-0.45;-33.74;-266.56;-135.52
983;-16.91;-21.86;22.26;-0.13;0.31;-0.45;-18.55;-165.20;-52.43
992;-11.72;-19.50;22.07;-0.13;0.31;-0.45;24.29;-46.13;47.67
1000;-11.78;-10.50;16.21;-0.13;0.31;-0.45;84.42;60.69;157.22
1009;-13.43;0.91;10.90;-0.15;0.31;-0.43;143.01;103.32;235.06
1018;-12.41;10.16;5.06;-0.15;0.31;-0.43;179.97;95.55;235.55
1027;-9.85;16.36;2.68;-0.15;0.31;-0.43;163.87;76.51;181.93
1036;-6.62;18.99;1.08;-0.14;0.34;-0.46;94.15;54.18;113.33
1044;-4.49;17.57;-0.01;-0.14;0.34;-0.46;13.16;39.48;47.25
1053;-4.08;14.22;-0.50;-0.14;0.34;-0.46;-30.87;21.56;10.29
1062;-4.95;10.22;0.06;-0.14;0.36;-0.45;-20.02;-2.94;-8.33
1071;-6.30;6.05;2.29;-0.14;0.36;-0.45;0.63;-27.86;-20.65
1079;-6.55;2.82;4.37;-0.13;0.36;-0.46;6.72;-44.45;-17.29
1088;-7.18;1.03;6.58;-0.13;0.36;-0.46;-0.91;-40.74;-5.88
1097;-7.11;0.85;8.28;-0.13;0.36;-0.46;-12.60;-24.78;5.53
1106;-6.91;1.88;9.22;-0.14;0.35;-0.45;-16.38;-4.48;12.88
1115;-6.78;2.70;8.73;-0.14;0.35;-0.45;-11.13;13.86;18.20
1123;-6.47;2.91;7.66;-0.14;0.35;-0.45;-0.56;21.21;16.73
1132;-5.86;2.58;6.60;-0.15;0.35;-0.47;5.60;20.44;13.02
1141;-5.50;1.68;6.15;-0.15;0.35;-0.47;6.72;13.79;8.82
1150;-4.96;0.79;5.91;-0.15;0.35;-0.47;6.65;2.24;6.65
1159;-4.95;0.00;6.13;-0.14;0.35;-0.45;6.86;-8.12;7.56
1167;-4.74;-0.57;7.13;-0.14;0.35;-0.45;7.49;-16.38;7.14
1176;-4.69;-0.61;8.11;-0.14;0.35;-0.45;3.78;-19.39;6.65
1185;-4.69;-0.31;8.99;-0.14;0.36;-0.46;-4.48;-17.08;5.39
1194;-4.43;0.02;9.55;-0.14;0.36;-0.46;-9.80;-11.48;3.92
1203;-4.51;0.53;9.71;-0.14;0.36;-0.46;-11.20;-5.67;2.17
1211;-4.79;0.74;9.70;-0.15;0.35;-0.45;-11.06;-2.17;1.47
1220;-5.08;1.10;9.69;-0.15;0.35;-0.45;-8.33;-0.42;0.56
1229;-5.23;1.28;9.45;-0.15;0.35;-0.45;-5.53;0.07;-1.12
1238;-5.62;1.24;9.17;-0.15;0.35;-0.47;-4.62;0.70;-2.52
1247;-5.82;1.06;8.76;-0.15;0.35;-0.47;-5.60;0.91;-4.20
1255;-6.23;0.69;8.40;-0.15;0.35;-0.47;-4.83;0.84;-3.92
1264;-6.43;0.45;8.23;-0.14;0.35;-0.44;-3.99;1.68;-1.47
1273;-6.57;0.41;8.08;-0.14;0.35;-0.44;-3.78;4.55;0.42
1282;-6.58;0.57;8.32;-0.14;0.35;-0.44;-4.69;7.56;1.54
1291;-6.74;0.62;8.03;-0.14;0.35;-0.46;-6.09;9.94;1.47
1299;-6.72;0.80;7.88;-0.14;0.35;-0.46;-6.86;10.78;1.96
1308;-6.60;0.74;7.56;-0.14;0.35;-0.46;-3.22;10.15;2.24
1317;-6.69;0.56;7.22;-0.14;0.35;-0.45;0.70;8.19;2.17
1326;-6.65;0.02;7.12;-0.14;0.35;-0.45;1.47;5.60;2.87
1334;-6.55;0.01;7.01;-0.14;0.35;-0.45;2.38;3.08;4.27
1343;-6.61;-0.04;7.21;-0.14;0.36;-0.46;2.24;2.10;4.83
1352;-6.53;0.00;7.31;-0.14;0.36;-0.46;-1.75;2.38;4.62
1361;-6.47;0.04;7.34;-0.14;0.36;-0.46;-4.13;3.64;5.60
1369;-6.27;0.27;7.49;-0.13;0.35;-0.46;-4.41;5.74;6.72
1378;-6.00;0.29;7.49;-0.13;0.35;-0.46;-1.82;5.88;8.26
1387;-5.89;0.45;7.52;-0.14;0.35;-0.46;2.24;5.60;10.15
1396;-6.04;0.74;7.47;-0.14;0.35;-0.46;5.25;4.55;10.64
1405;-5.99;0.69;7.57;-0.14;0.35;-0.46;5.53;0.42;8.40
1413;-5.82;0.55;7.71;-0.14;0.35;-0.46;3.99;-1.75;6.44
1422;-5.83;0.55;7.84;-0.14;0.35;-0.46;2.52;-2.80;5.39
1431;-5.84;0.42;8.20;-0.14;0.35;-0.46;0.98;-1.61;5.74
1440;-5.89;0.34;8.11;-0.14;0.35;-0.46;0.42;-0.21;5.88
1448;-5.65;0.56;8.31;-0.14;0.35;-0.46;2.03;3.08;8.82
1457;-5.60;0.81;8.05;-0.14;0.35;-0.46;8.40;4.83;11.13
1466;-5.55;0.97;7.82;-0.15;0.35;-0.46;12.25;5.39;11.83
1475;-5.67;0.88;7.72;-0.15;0.35;-0.46;13.16;5.39;10.92
1484;-5.81;0.70;7.72;-0.15;0.35;-0.46;11.13;4.13;9.87
1492;-5.84;0.26;7.72;-0.14;0.35;-0.45;9.24;3.92;9.38
1501;-6.14;-0.08;7.75;-0.14;0.35;-0.45;7.77;3.01;9.73
1510;-6.29;-0.49;7.92;-0.14;0.35;-0.45;4.76;3.43;10.36
1519;-6.46;-0.80;8.03;-0.13;0.36;-0.47;0.84;5.39;12.81
1527;-6.50;-0.62;8.01;-0.13;0.36;-0.47;-0.28;8.61;18.90
1536;-6.62;-0.45;7.85;-0.13;0.36;-0.47;4.76;10.50;24.78
1545;-6.64;-0.29;7.83;-0.14;0.36;-0.46;9.59;10.57;29.12
1554;-6.60;-0.27;7.84;-0.14;0.36;-0.46;11.69;9.87;31.78
1563;-6.66;-0.20;7.85;-0.14;0.36;-0.46;11.34;10.01;35.35
1572;-6.63;-0.08;7.91;-0.12;0.35;-0.46;13.44;10.01;38.64
1580;-6.59;-0.04;7.95;-0.12;0.35;-0.46;18.76;10.92;40.32
1589;-6.60;-0.04;7.81;-0.12;0.35;-0.46;22.75;11.90;42.63
1598;-6.75;0.17;7.80;-0.12;0.36;-0.47;26.11;13.30;44.52
1607;-6.65;0.29;7.85;-0.12;0.36;-0.47;25.06;16.87;42.42
1615;-6.59;0.41;7.88;-0.12;0.36;-0.47;20.44;20.30;37.45
1624;-6.65;0.38;7.62;-0.12;0.37;-0.47;9.52;24.01;28.14
1633;-6.70;0.39;7.49;-0.12;0.37;-0.47;-6.72;27.37;18.41
1642;-6.78;0.14;7.41;-0.12;0.37;-0.47;-27.51;30.31;9.94
1651;-6.58;0.28;7.27;-0.12;0.37;-0.46;-40.74;31.43;3.99
1659;-6.40;0.13;7.19;-0.12;0.37;-0.46;-48.02;33.11;1.05
1668;-6.33;0.11;7.09;-0.12;0.37;-0.46;-48.79;33.88;1.19
1677;-6.32;0.11;7.03;-0.11;0.36;-0.46;-42.84;31.78;4.13
1686;-6.09;0.14;7.08;-0.11;0.36;-0.46;-34.86;29.47;7.84
1694;-5.79;0.06;7.28;-0.11;0.35;-0.46;-24.57;28.07;13.93
1703;-5.84;0.14;7.37;-0.10;0.35;-0.46;-16.59;24.99;19.53
1712;-5.77;0.36;7.46;-0.10;0.35;-0.46;-9.66;22.40;24.29
1721;-5.70;0.39;7.71;-0.10;0.35;-0.47;-5.60;19.53;28.56
1729;-5.68;0.65;7.88;-0.10;0.35;-0.47;-0.28;17.71;29.26
1738;-5.48;0.75;8.02;-0.10;0.35;-0.47;6.30;17.57;26.95
1747;-5.35;0.60;8.10;-0.10;0.36;-0.47;12.11;20.44;23.38
1756;-5.05;0.42;7.85;-0.10;0.36;-0.47;11.48;25.62;20.58
1765;-5.08;0.31;7.43;-0.10;0.36;-0.47;4.69;30.66;20.44
1773;-5.17;0.34;7.11;-0.10;0.35;-0.46;-4.48;31.92;20.86
1782;-5.00;0.34;6.91;-0.10;0.35;-0.46;-15.19;31.01;20.65
1791;-5.08;0.45;6.91;-0.10;0.35;-0.46;-22.68;29.19;19.46
1800;-5.39;0.81;7.05;-0.09;0.35;-0.47;-25.83;25.13;16.31
1808;-5.58;0.75;7.42;-0.09;0.35;-0.47;-27.09;18.83;9.66
1817;-5.59;0.34;7.65;-0.09;0.35;-0.47;-27.79;13.65;3.22
1826;-5.22;0.37;7.74;-0.10;0.35;-0.46;-26.60;11.13;3.64
1835;-5.28;0.22;8.07;-0.10;0.35;-0.46;-19.32;10.22;10.50
1843;-5.36;0.60;8.08;-0.10;0.35;-0.46;-14.28;9.73;13.79
1852;-5.23;0.75;8.20;-0.09;0.34;-0.46;-5.88;7.56;14.14
1861;-5.16;0.80;7.96;-0.09;0.34;-0.46;-0.77;7.14;12.32
1870;-5.22;0.70;7.99;-0.09;0.34;-0.46;-0.98;6.72;10.01
1878;-5.08;0.56;7.70;-0.09;0.35;-0.45;-5.25;6.58;9.31
1887;-4.87;0.48;7.52;-0.09;0.35;-0.45;-14.49;6.51;10.29
1896;-4.94;0.70;7.61;-0.09;0.35;-0.45;-21.77;5.60;9.73
1905;-4.97;0.77;7.83;-0.09;0.35;-0.47;-27.37;4.13;7.07
1914;-4.96;0.59;8.03;-0.09;0.35;-0.47;-28.35;2.03;6.30
1922;-5.01;0.55;8.21;-0.09;0.35;-0.47;-23.52;0.56;8.54
1931;-5.16;0.30;8.41;-0.09;0.35;-0.46;-14.56;-1.19;13.37
1940;-5.26;0.44;8.40;-0.09;0.35;-0.46;-5.67;-3.78;20.65
1949;-5.10;0.56;8.34;-0.09;0.35;-0.46;4.41;-6.93;23.59
1957;-4.70;0.56;8.15;-0.09;0.33;-0.47;14.77;-8.33;23.03
1966;-4.58;0.45;7.93;-0.09;0.33;-0.47;19.18;-7.07;21.49
1975;-4.45;0.25;8.00;-0.09;0.33;-0.47;17.22;-4.48;18.83
1984;-4.62;0.27;7.95;-0.09;0.34;-0.46;11.20;-1.19;15.05
1993;-4.62;0.02;7.89;-0.09;0.34;-0.46;2.87;2.59;11.20
2001;-4.55;-0.04;7.92;-0.09;0.34;-0.46;-2.52;6.37;8.89
2010;-4.77;-0.11;7.87;-0.09;0.35;-0.47;-5.18;9.03;7.21
2019;-4.91;-0.21;8.00;-0.09;0.35;-0.47;-5.95;8.54;4.97
2028;-4.80;-0.11;8.05;-0.09;0.35;-0.45;-2.31;5.32;4.34
2036;-4.80;-0.39;8.18;-0.10;0.34;-0.45;-0.14;4.20;4.27
2045;-4.95;-0.47;8.20;-0.10;0.34;-0.45;0.63;2.80;5.53
2054;-4.96;-0.39;8.25;-0.09;0.33;-0.46;1.26;0.56;6.51
2063;-5.07;-0.29;8.17;-0.09;0.33;-0.46;2.66;-1.05;5.67
2071;-5.21;-0.33;8.06;-0.09;0.33;-0.46;3.22;-1.54;4.48
2080;-4.95;-0.43;8.07;-0.09;0.34;-0.47;2.59;0.70;3.01
2089;-4.97;-0.44;8.15;-0.09;0.34;-0.47;-17.57;3.99;2.24
2098;-4.83;-0.62;8.18;-0.09;0.34;-0.47;-1.96;7.49;2.59
2106;-4.79;-0.71;8.26;-0.09;0.33;-0.46;-3.85;10.22;3.08
2115;-4.72;-0.65;8.38;-0.09;0.33;-0.46;-6.23;11.90;3.29
2124;-4.85;-0.57;8.27;-0.09;0.33;-0.46;-8.26;11.06;2.38
2133;-4.77;-0.56;8.13;-0.09;0.34;-0.48;-9.80;8.54;4.06
2142;-4.68;-0.56;7.98;-0.09;0.34;-0.48;-11.55;5.25;6.72
2151;-4.83;-0.58;8.03;-0.09;0.34;-0.48;-10.92;0.63;9.31
2159;-4.78;-0.69;8.06;-0.09;0.33;-0.46;-6.23;-5.11;13.72
2168;-4.83;-0.70;8.35;-0.09;0.33;-0.46;0.28;-9.80;17.50
2177;-4.64;-0.63;8.46;-0.09;0.33;-0.46;5.95;-13.65;20.93
2186;-4.60;-0.49;8.61;-0.08;0.33;-0.46;8.61;-13.16;22.96
2195;-4.57;-0.26;8.64;-0.08;0.33;-0.46;8.05;-11.62;23.10
2203;-4.49;-0.16;8.79;-0.08;0.33;-0.46;7.07;-10.57;21.49
2212;-4.52;-0.07;8.82;-0.08;0.33;-0.46;4.27;-8.40;19.04
2221;-4.41;-0.18;8.76;-0.08;0.33;-0.46;0.14;-7.00;16.87
2229;-4.39;-0.12;8.84;-0.08;0.33;-0.46;-2.24;-5.32;15.61
2238;-4.38;-0.06;8.79;-0.10;0.33;-0.46;-4.90;-3.99;14.00
2247;-4.32;-0.14;8.77;-0.10;0.33;-0.46;-6.58;-1.40;14.56
2256;-4.33;-0.20;8.79;-0.10;0.33;-0.46;-8.19;1.68;14.98
2265;-4.38;-0.21;8.81;-0.10;0.34;-0.47;-9.24;3.78;14.70
2273;-4.40;-0.14;8.79;-0.10;0.34;-0.47;-8.68;4.55;14.35
2282;-4.41;-0.18;8.64;-0.10;0.34;-0.47;-6.02;2.52;14.49
2291;-4.29;-0.16;8.59;-0.09;0.33;-0.47;-3.01;1.26;14.56
2300;-4.33;-0.04;8.31;-0.09;0.33;-0.47;-1.40;-1.96;15.05
2309;-4.36;0.04;8.26;-0.09;0.33;-0.47;1.54;-4.41;14.98
2317;-4.31;-0.01;8.13;-0.10;0.33;-0.47;3.15;-4.69;15.47
2326;-4.13;0.01;8.43;-0.10;0.33;-0.47;3.22;-4.62;14.56
2335;-4.25;0.13;8.48;-0.10;0.33;-0.47;0.35;-3.36;12.67
2344;-4.29;0.11;8.67;-0.09;0.33;-0.48;-6.02;-0.91;10.50
2353;-4.37;-0.02;8.73;-0.09;0.33;-0.48;-10.15;1.47;9.38
2361;-4.36;-0.04;8.98;-0.10;0.33;-0.47;-12.11;4.06;9.52
2370;-4.51;0.02;8.92;-0.10;0.33;-0.47;-12.32;7.56;10.64
2379;-4.54;0.17;8.98;-0.10;0.33;-0.47;-10.64;8.61;10.85
2387;-4.59;0.24;8.89;-0.10;0.35;-0.46;-5.74;8.89;10.92
2396;-4.52;0.37;8.66;-0.10;0.35;-0.46;-2.52;7.91;11.06
2405;-4.39;0.35;8.37;-0.10;0.35;-0.46;-1.40;6.23;10.85
2414;-4.39;0.34;8.53;-0.09;0.33;-0.46;-3.92;4.20;8.68
2423;-4.29;0.42;8.62;-0.09;0.33;-0.46;-6.44;2.66;5.95
2431;-4.26;0.58;8.97;-0.09;0.33;-0.46;-8.47;3.01;3.57
2440;-4.54;0.62;8.92;-0.09;0.32;-0.46;-8.47;3.43;1.19
2449;-4.41;0.59;9.03;-0.09;0.32;-0.46;-7.21;3.36;-0.70
2458;-4.45;0.60;9.04;-0.09;0.32;-0.46;-5.25;5.18;-0.70
2467;-4.46;0.68;9.13;-0.09;0.32;-0.46;-2.03;7.00;-0.28
2475;-4.39;0.69;9.20;-0.09;0.32;-0.46;1.05;8.26;0.56
2484;-4.28;0.83;9.21;-0.09;0.32;-0.46;1.61;10.22;-0.35
2493;-4.44;0.83;9.11;-0.09;0.31;-0.46;0.56;11.76;-2.87
2502;-4.49;0.66;9.18;-0.09;0.31;-0.46;-4.06;13.02;-4.69
2510;-4.54;0.49;9.04;-0.09;0.31;-0.46;-7.35;14.35;-5.32
2519;-4.43;0.37;8.96;-0.09;0.33;-0.47;-8.05;14.91;-5.53
2528;-4.49;0.30;8.76;-0.09;0.33;-0.47;-4.55;14.70;-5.32
2537;-4.41;0.31;8.51;-0.09;0.33;-0.47;1.82;12.74;-5.18
2546;-4.32;0.14;8.19;-0.07;0.33;-0.48;9.94;8.82;-5.32
2555;-4.40;0.02;8.20;-0.07;0.33;-0.48;17.36;4.48;-5.18
2563;-4.41;-0.11;8.07;-0.07;0.33;-0.48;20.02;-0.28;-4.27
2572;-4.41;-0.14;8.16;-0.07;0.33;-0.46;18.48;-2.87;-3.92
2581;-4.47;-0.31;8.54;-0.07;0.33;-0.46;13.02;-2.24;-4.62
2590;-4.45;-0.42;8.78;-0.07;0.33;-0.46;8.61;-0.42;-4.83
2598;-4.40;-0.62;8.89;-0.07;0.34;-0.46;6.79;2.52;-3.57
2607;-4.20;-0.56;8.76;-0.07;0.34;-0.46;7.63;5.53;-2.31
2616;-4.19;-0.61;8.48;-0.07;0.34;-0.46;9.24;7.84;-2.03
2625;-4.07;-0.58;8.41;-0.07;0.34;-0.47;8.89;7.84;-2.80
2634;-3.91;-0.50;8.25;-0.07;0.34;-0.47;6.58;8.12;-2.87
2642;-3.94;-0.51;8.35;-0.07;0.34;-0.47;4.27;6.58;-2.87
2651;-3.81;-0.52;8.34;-0.07;0.34;-0.46;2.94;5.04;-3.43
2660;-3.75;-0.57;8.31;-0.07;0.34;-0.46;2.52;2.59;-4.27
2669;-3.52;-0.69;8.48;-0.07;0.34;-0.47;2.10;0.91;-3.78
2678;-3.59;-0.75;8.47;-0.08;0.34;-0.47;2.31;0.21;-3.43
2686;-3.44;-0.65;8.66;-0.08;0.34;-0.47;3.01;-1.47;-3.50
2695;-3.47;-0.71;8.66;-0.08;0.34;-0.48;3.64;-1.82;-2.45
2704;-3.40;-0.67;8.82;-0.08;0.34;-0.48;2.52;-0.14;-2.31
2713;-3.40;-0.73;9.04;-0.08;0.34;-0.48;1.75;0.63;-2.03
2721;-3.40;-0.78;9.00;-0.08;0.35;-0.47;1.75;3.29;-0.35
2730;-3.50;-0.69;8.97;-0.08;0.35;-0.47;1.68;4.97;1.61
2739;-3.55;-0.58;8.84;-0.08;0.35;-0.47;3.57;5.53;2.38
2748;-3.62;-0.52;8.76;-0.08;0.35;-0.47;4.62;5.46;2.45
2757;-3.51;-0.52;8.83;-0.08;0.35;-0.47;4.48;6.37;3.92
2765;-3.52;-0.50;8.75;-0.08;0.35;-0.47;3.01;7.21;4.34
2774;-3.64;-0.45;8.69;-0.07;0.34;-0.48;1.75;6.37;3.57
2783;-3.69;-0.35;8.54;-0.07;0.34;-0.48;1.68;4.97;2.80
2792;-3.78;-0.41;8.59;-0.07;0.34;-0.48;0.98;2.80;1.82
2800;-3.77;-0.32;8.60;-0.07;0.34;-0.46;0.42;1.54;2.45
2809;-3.81;-0.27;8.48;-0.07;0.34;-0.46;-0.98;0.49;2.52
2818;-3.83;-0.26;8.47;-0.07;0.34;-0.46;-0.84;0.49;3.08
2827;-3.87;-0.12;8.32;-0.07;0.34;-0.46;-0.35;0.49;2.59
2836;-3.97;-0.04;8.31;-0.07;0.34;-0.46;0.56;0.56;1.40
2845;-4.06;-0.10;8.42;-0.07;0.34;-0.46;0.14;0.98;0.56
2853;-4.05;-0.06;8.48;-0.07;0.34;-0.47;0.14;1.47;-0.42
2862;-4.17;-0.13;8.63;-0.07;0.34;-0.47;-0.14;0.70;-1.26
2871;-4.04;-0.16;8.50;-0.07;0.34;-0.47;0.28;0.14;-0.98
2880;-4.20;-0.25;8.57;-0.07;0.34;-0.46;0.91;-0.70;0.07
2889;-4.12;-0.19;8.60;-0.07;0.34;-0.46;2.80;-3.29;0.70
2897;-4.19;-0.14;8.41;-0.07;0.34;-0.46;4.62;-4.76;1.61
2906;-4.05;-0.24;8.48;-0.07;0.35;-0.47;4.97;-5.53;2.73
2915;-4.00;-0.22;8.59;-0.07;0.35;-0.47;6.37;-6.30;2.59
2924;-4.02;-0.11;8.53;-0.07;0.35;-0.47;6.93;-5.67;1.96
2933;-3.98;-0.17;8.46;-0.08;0.35;-0.46;6.65;-5.18;1.61
2942;-4.03;-0.17;8.53;-0.08;0.35;-0.46;5.04;-4.48;-0.21
2950;-3.98;-0.12;8.50;-0.08;0.35;-0.46;2.52;-4.69;-1.47
2959;-3.83;-0.27;8.66;-0.07;0.34;-0.46;-0.35;-4.48;-2.38
2968;-3.79;-0.35;8.92;-0.07;0.34;-0.46;-1.89;-4.48;-2.38
2977;-3.60;-0.43;9.05;-0.07;0.34;-0.46;-1.89;-4.20;-1.12
2985;-3.45;-0.52;9.28;-0.08;0.34;-0.46;0.70;-2.94;0.56
2994;-3.45;-0.53;9.32;-0.08;0.34;-0.46;3.99;-1.54;1.61
3003;-3.42;-0.55;9.14;-0.07;0.35;-0.47;6.86;-0.42;1.75
3012;-3.53;-0.55;9.13;-0.07;0.35;-0.47;8.61;-0.42;1.19
3021;-3.59;-0.58;9.04;-0.07;0.35;-0.47;7.98;-1.19;0.63
3029;-3.52;-0.62;8.88;-0.07;0.34;-0.46;5.81;-1.61;-1.05
3038;-3.57;-0.67;8.99;-0.07;0.34;-0.46;3.08;-0.98;-1.68
3047;-3.53;-0.63;9.09;-0.07;0.34;-0.46;0.49;0.07;-2.59
3056;-3.47;-0.62;9.31;-0.07;0.34;-0.46;-1.82;0.91;-3.92
3065;-3.33;-0.62;9.47;-0.07;0.34;-0.46;-4.76;3.15;-4.76
3073;-3.19;-0.59;9.66;-0.07;0.34;-0.46;-8.96;6.30;-5.60
3082;-3.16;-0.52;9.70;-0.07;0.34;-0.47;-13.02;9.94;-6.37
3091;-2.81;-0.63;9.76;-0.07;0.34;-0.47;-14.42;13.02;-7.14
3100;-2.46;-0.62;9.88;-0.07;0.34;-0.47;-13.51;13.86;-8.96
3109;-2.15;-0.65;9.91;-0.06;0.34;-0.46;-9.59;14.28;-10.57
3118;-1.95;-0.57;9.88;-0.06;0.34;-0.46;-5.67;15.68;-10.64
3126;-1.82;-0.73;9.73;-0.06;0.34;-0.46;-5.39;35.70;-12.32
3135;-1.90;-0.63;9.55;-0.06;0.33;-0.46;-8.82;19.11;-15.89
3144;-1.68;-0.62;9.41;-0.06;0.33;-0.46;-12.11;18.90;-18.69
3153;-1.31;-0.50;9.32;-0.06;0.33;-0.46;-15.47;18.97;-20.09
3162;-1.23;-0.38;9.24;-0.06;0.34;-0.45;-18.90;19.11;-21.00
3170;-1.06;-0.42;9.25;-0.06;0.34;-0.45;-23.94;18.06;-23.66
3179;-0.75;-0.28;9.25;-0.06;0.34;-0.45;-28.42;18.27;-25.62
3188;-0.53;-0.22;9.43;-0.05;0.33;-0.47;-33.18;18.97;-28.21
3197;-0.11;-0.36;9.73;-0.05;0.33;-0.47;-35.77;21.28;-30.45
3206;0.10;-0.17;9.80;-0.05;0.33;-0.47;-37.24;23.45;-33.32
3215;0.78;-0.06;10.19;-0.05;0.33;-0.46;-38.15;24.08;-34.37
3223;1.75;0.11;10.87;-0.05;0.33;-0.46;-38.50;23.52;-33.32
3232;2.94;1.08;11.46;-0.05;0.33;-0.46;-37.59;25.90;-31.92
3241;4.52;2.35;12.54;-0.04;0.33;-0.44;-39.69;40.04;-32.13
3250;6.09;3.26;12.49;-0.04;0.33;-0.44;-51.87;58.45;-40.74
3259;7.67;4.20;11.62;-0.03;0.31;-0.44;-59.50;80.43;-48.37
3268;9.40;5.33;9.72;-0.03;0.31;-0.44;-55.44;95.90;-54.18
3276;9.26;7.37;7.63;-0.03;0.31;-0.44;-33.04;100.59;-48.16
3285;8.17;7.81;3.73;-0.01;0.29;-0.45;5.88;85.75;-34.86
3294;4.93;9.92;2.64;-0.01;0.29;-0.45;59.99;38.78;-65.94
3303;0.78;12.78;-0.42;-0.01;0.29;-0.45;104.93;-13.09;-96.81
3312;-4.95;14.59;-5.36;0.02;0.31;-0.44;134.19;-58.94;-127.05
3320;-11.26;14.88;-7.00;0.02;0.31;-0.44;118.51;-126.42;-178.22
3329;-17.85;12.59;-8.66;0.02;0.31;-0.44;69.44;-207.83;-259.77
3338;-24.30;7.29;-7.27;-0.04;0.33;-0.47;13.16;-300.09;-323.40
3347;-30.26;-1.52;-2.30;-0.04;0.33;-0.47;-37.66;-363.72;-339.99
3356;-35.76;-7.87;5.16;-0.04;0.33;-0.47;-98.70;-382.34;-317.17
3365;-41.87;-18.30;15.91;-0.10;0.33;-0.47;-184.80;-375.34;-279.37
3374;-41.74;-41.41;29.50;-0.10;0.33;-0.47;-188.79;-325.85;-245.49
3382;-27.94;-52.24;36.61;-0.10;0.33;-0.47;-251.02;-153.58;-126.21
3391;-15.92;-37.39;32.43;-0.13;0.28;-0.43;-230.79;104.65;145.95
3400;-14.95;-12.53;20.62;-0.13;0.28;-0.43;39.69;263.55;374.08
3409;-21.82;16.70;5.61;-0.13;0.28;-0.43;385.63;221.34;460.60
3418;-17.44;32.83;-4.11;-0.11;0.31;-0.45;587.16;138.04;416.92
3426;-8.04;39.70;-4.41;-0.11;0.31;-0.45;451.15;70.91;254.94
3435;2.22;36.52;-3.88;-0.11;0.31;-0.45;123.62;3.50;75.74
3444;2.81;25.60;-3.96;-0.11;0.38;-0.47;-123.83;-10.50;-36.12
3453;-1.65;13.83;-2.23;-0.11;0.38;-0.47;-183.19;-37.52;-126.07
3461;-5.30;5.87;1.43;-0.11;0.38;-0.47;-138.25;-76.37;-125.65
3470;-8.54;-1.69;8.49;-0.12;0.36;-0.46;-76.93;-80.15;-71.12
3479;-9.38;-3.38;13.44;-0.12;0.36;-0.46;-28.70;-49.98;-11.13
3488;-8.46;-2.85;14.33;-0.12;0.36;-0.46;2.03;-1.54;16.10
3497;-7.52;-0.43;10.88;-0.13;0.35;-0.45;22.96;40.04;38.64
3505;-7.09;1.83;6.84;-0.13;0.35;-0.45;35.70;53.06;56.63
3514;-5.12;3.83;4.84;-0.13;0.35;-0.45;42.00;40.74;55.86
3523;-3.94;4.50;4.41;-0.12;0.36;-0.46;31.08;22.68;42.84
3532;-3.53;4.23;5.02;-0.12;0.36;-0.46;-1.33;10.71;26.18
3540;-3.28;3.72;5.99;-0.12;0.36;-0.46;-22.54;2.66;12.60
3549;-3.34;2.77;7.07;-0.12;0.35;-0.46;-22.96;-6.51;0.63
3558;-3.40;1.66;7.59;-0.12;0.35;-0.46;-10.08;-11.13;-1.54
3567;-3.36;0.78;7.92;-0.13;0.35;-0.46;4.55;-12.46;-2.45
3575;-3.30;-0.07;7.94;-0.13;0.35;-0.46;4.90;-12.18;-4.97
3584;-3.30;-1.08;7.89;-0.13;0.35;-0.46;-3.85;-10.92;-6.51
3593;-3.58;-1.25;8.04;-0.12;0.35;-0.47;-11.13;-10.50;-5.88
3602;-4.29;-1.08;8.37;-0.12;0.35;-0.47;-15.40;-10.71;-3.92
3611;-4.87;-0.24;8.69;-0.12;0.35;-0.47;-15.19;-11.06;0.14
3619;-5.64;0.59;9.16;-0.12;0.35;-0.46;-12.25;-10.22;1.12
3628;-5.90;1.07;9.26;-0.12;0.35;-0.46;-9.38;-9.87;-3.85
3637;-5.94;0.97;9.25;-0.12;0.35;-0.46;-6.86;-8.82;-11.34
3646;-6.16;0.09;9.07;-0.12;0.34;-0.45;-8.89;-7.63;-17.57
3655;-6.35;-0.66;8.97;-0.12;0.34;-0.45;-13.72;-5.60;-19.88
3664;-6.54;-1.43;9.04;-0.12;0.34;-0.45;-19.04;-4.06;-17.99
3672;-6.85;-1.75;9.12;-0.12;0.35;-0.46;-19.74;-1.82;-10.57
3681;-6.91;-1.66;9.22;-0.12;0.35;-0.46;-11.83;1.40;-3.15
3690;-6.78;-1.25;9.17;-0.12;0.35;-0.46;1.89;5.18;6.51
3699;-6.55;-0.59;8.56;-0.12;0.34;-0.47;14.70;8.40;13.44
3707;-6.27;-0.29;7.85;-0.12;0.34;-0.47;22.19;10.71;16.45
3716;-6.12;-0.06;7.34;-0.12;0.34;-0.47;22.89;11.13;14.77
3725;-6.20;-0.04;6.63;-0.13;0.35;-0.44;16.17;8.82;12.39
3734;-5.99;-0.01;6.66;-0.13;0.35;-0.44;6.16;3.57;7.63
3743;-5.84;0.04;6.98;-0.13;0.35;-0.44;-3.92;0.07;3.71
3751;-5.90;0.15;7.34;-0.12;0.36;-0.47;-12.04;-1.75;0.28
3760;-6.02;0.15;7.84;-0.12;0.36;-0.47;-13.65;-2.38;-1.05
3769;-5.85;-0.02;7.80;-0.12;0.36;-0.47;-11.41;-2.03;0.77
3778;-5.74;0.11;7.87;-0.11;0.35;-0.46;-7.42;-0.49;1.75
3786;-5.79;0.15;7.82;-0.11;0.35;-0.46;-4.06;0.56;2.52
3795;-5.71;0.10;7.69;-0.11;0.35;-0.46;-1.75;0.98;3.43
3804;-5.73;-0.05;7.77;-0.12;0.35;-0.46;-0.49;0.07;3.43
3813;-5.84;-0.04;7.70;-0.12;0.35;-0.46;-0.49;-1.96;3.36
3822;-5.74;-0.03;7.90;-0.12;0.35;-0.46;-0.84;-2.94;3.08
3830;-5.68;0.14;8.13;-0.12;0.34;-0.46;-0.91;-2.45;3.85
3839;-5.54;0.32;8.05;-0.12;0.34;-0.46;-1.96;-2.73;5.25
3848;-5.35;0.50;8.16;-0.12;0.34;-0.46;0.70;-2.03;6.79
3857;-5.27;0.75;8.03;-0.12;0.35;-0.46;4.83;-1.40;8.19
3866;-5.02;0.87;7.85;-0.12;0.35;-0.46;7.98;-0.84;8.68
3874;-5.00;0.88;7.79;-0.12;0.35;-0.47;10.85;-0.77;9.24
3883;-5.05;0.88;7.65;-0.12;0.35;-0.47;12.53;-1.19;8.33
3892;-5.13;0.85;7.47;-0.12;0.35;-0.47;11.62;-2.17;6.30
3901;-5.32;0.65;7.58;-0.13;0.36;-0.47;7.14;-2.73;2.59
3909;-5.52;0.52;7.59;-0.13;0.36;-0.47;-0.28;-4.55;-1.40
3918;-5.58;0.19;7.76;-0.13;0.36;-0.47;-8.40;-4.62;-3.78
3927;-5.81;-0.02;7.93;-0.12;0.35;-0.46;-10.71;-4.13;-3.92
3936;-5.81;-0.04;8.14;-0.12;0.35;-0.46;-7.63;-3.57;-0.70
3945;-5.97;-0.02;8.23;-0.12;0.35;-0.46;-0.14;-3.08;2.80
3953;-6.00;0.04;8.18;-0.12;0.35;-0.46;5.88;-1.96;5.88
3962;-6.02;0.14;7.98;-0.12;0.35;-0.46;8.19;-1.47;7.28
3971;-5.94;0.20;7.82;-0.12;0.35;-0.46;7.91;-1.96;7.56
3980;-5.94;0.20;7.70;-0.13;0.36;-0.46;8.40;-2.10;7.28
3989;-6.02;0.20;7.80;-0.13;0.36;-0.46;7.70;-2.38;6.79
3997;-6.05;0.17;7.77;-0.13;0.36;-0.46;4.55;-2.38;5.11
4006;-5.96;0.25;7.80;-0.12;0.35;-0.46;1.68;-2.45;4.55
4015;-5.87;0.24;7.77;-0.12;0.35;-0.46;0.63;-2.31;4.13
4024;-5.79;0.35;7.87;-0.12;0.35;-0.46;-0.49;-2.73;3.43
4033;-5.66;0.29;7.77;-0.13;0.36;-0.46;-1.05;-2.45;2.31
4042;-5.92;0.33;7.83;-0.13;0.36;-0.46;-2.52;-2.17;1.89
4050;-5.91;0.26;8.00;-0.13;0.36;-0.46;-3.92;-1.54;1.26
4059;-5.86;0.30;7.96;-0.12;0.35;-0.46;-3.15;-1.89;0.70
4068;-5.94;0.22;8.05;-0.12;0.35;-0.46;-1.61;-1.68;2.17
4077;-5.98;0.09;7.92;-0.12;0.35;-0.46;0.70;-2.24;3.57
4085;-6.04;0.07;7.90;-0.13;0.35;-0.46;1.89;-1.12;5.18
4094;-6.04;-0.02;7.90;-0.13;0.35;-0.46;2.73;-1.47;5.39
4103;-5.81;-0.04;7.90;-0.13;0.35;-0.46;2.94;0.14;5.11
4112;-5.86;-0.14;7.67;-0.12;0.36;-0.45;-0.21;2.03;4.41
4121;-6.01;-0.23;7.60;-0.12;0.36;-0.45;-3.99;1.54;3.15
4129;-5.88;-0.45;7.57;-0.12;0.36;-0.45;-6.79;1.26;1.12
4138;-6.12;-0.45;7.66;-0.12;0.36;-0.46;-10.92;1.89;1.75
4147;-6.25;-0.60;7.95;-0.12;0.36;-0.46;-12.60;2.52;3.29
4156;-6.26;-0.29;8.02;-0.12;0.36;-0.46;-10.15;3.29;6.51
4165;-6.25;-0.18;8.29;-0.13;0.35;-0.46;17.50;3.85;12.60
4173;-6.25;0.01;8.40;-0.13;0.35;-0.46;18.06;1.40;18.27
4182;-6.07;0.53;8.28;-0.12;0.35;-0.46;36.68;-0.49;24.99
4191;-5.97;0.71;8.03;-0.12;0.35;-0.46;50.96;-1.40;26.18
4200;-5.92;0.79;7.60;-0.12;0.35;-0.46;50.26;-0.21;22.54
4209;-6.11;0.68;7.29;-0.13;0.37;-0.46;35.56;1.54;14.49
4217;-6.07;0.29;7.01;-0.13;0.37;-0.46;11.62;4.97;0.98
4226;-6.24;-0.11;6.87;-0.13;0.37;-0.46;-18.20;10.22;-7.91
4235;-6.61;-0.49;6.96;-0.12;0.37;-0.46;-36.96;12.18;-12.25
4244;-6.59;-0.86;7.15;-0.12;0.37;-0.46;-42.56;11.90;-10.57
4252;-6.92;-0.72;7.43;-0.12;0.37;-0.46;-37.10;9.52;-3.01
4261;-7.08;-0.45;7.63;-0.12;0.36;-0.46;-16.94;5.32;8.26
4270;-6.99;-0.19;7.96;-0.12;0.36;-0.46;4.76;-2.38;18.48
4279;-6.98;0.10;8.02;-0.12;0.36;-0.46;25.34;-6.79;26.67
4288;-7.12;0.20;8.18;-0.12;0.36;-0.46;40.25;-10.57;32.90
4296;-7.03;0.42;8.05;-0.12;0.36;-0.46;48.51;-10.36;34.44
4305;-6.98;0.41;7.90;-0.12;0.36;-0.46;45.01;-7.21;32.13
4314;-6.97;0.39;7.82;-0.13;0.39;-0.45;32.13;-2.66;28.07
4323;-6.86;0.29;7.57;-0.13;0.39;-0.45;13.23;4.69;21.84
4331;-6.91;0.18;7.34;-0.13;0.39;-0.45;-6.93;11.27;16.17
4340;-6.93;0.08;7.26;-0.13;0.38;-0.46;-23.45;16.31;13.65
4349;-6.87;-1.84;7.30;-0.13;0.38;-0.46;-27.30;20.65;13.86
4357;-7.11;0.01;7.28;-0.13;0.38;-0.46;-24.64;20.93;14.42
4366;-7.18;-0.02;7.31;-0.13;0.38;-0.45;-16.45;17.78;17.08
4375;-6.90;-0.22;7.26;-0.13;0.38;-0.45;-4.48;13.44;22.19
4384;-6.92;-0.35;7.30;-0.13;0.38;-0.45;2.87;10.71;30.38
4393;-6.70;-0.20;7.33;-0.13;0.38;-0.47;8.96;12.04;39.41
4402;-6.53;0.05;7.19;-0.13;0.38;-0.47;10.92;14.49;42.56
4410;-6.02;0.34;6.99;-0.13;0.38;-0.47;10.85;18.76;44.24
4419;-5.75;0.57;6.72;-0.12;0.38;-0.46;7.14;21.84;40.60
4428;-5.52;0.82;6.70;-0.12;0.38;-0.46;-1.54;26.04;34.51
4437;-5.55;1.01;6.93;-0.12;0.38;-0.46;-13.86;31.08;28.77
4445;-5.46;0.75;7.03;-0.12;0.39;-0.47;-26.53;32.48;18.13
4454;-5.42;0.80;7.54;-0.12;0.39;-0.47;-37.45;35.07;9.66
4463;-5.33;0.47;8.03;-0.12;0.39;-0.47;-43.68;36.75;6.09
4472;-5.51;0.27;8.15;-0.10;0.38;-0.46;-44.80;38.22;5.81
4480;-5.56;0.14;8.44;-0.10;0.38;-0.46;-40.04;37.03;10.57
4489;-5.69;-0.27;8.41;-0.10;0.38;-0.46;-30.52;31.57;16.10
4498;-5.45;-0.31;8.19;-0.11;0.37;-0.47;-13.86;25.69;23.31
4507;-5.33;-0.15;7.72;-0.11;0.37;-0.47;4.69;19.18;28.63
4516;-5.00;-0.03;7.47;-0.10;0.37;-0.46;16.52;13.58;31.50
4525;-4.92;0.20;7.34;-0.10;0.37;-0.46;20.86;9.38;30.80
4533;-4.61;0.18;7.25;-0.10;0.37;-0.46;16.24;9.59;27.51
4542;-4.53;0.06;7.24;-0.10;0.37;-0.47;4.83;11.34;23.73
4551;-4.57;0.13;7.47;-0.10;0.37;-0.47;-8.54;14.00;17.08
4560;-4.52;0.00;7.57;-0.10;0.37;-0.47;-18.06;15.19;11.27
4568;-4.74;-0.14;7.86;-0.09;0.37;-0.48;-21.84;15.26;6.86
4577;-5.00;-0.30;8.03;-0.09;0.37;-0.48;-22.54;13.93;4.76
4586;-5.04;-0.55;8.03;-0.09;0.37;-0.48;-17.64;12.67;5.39
4595;-4.95;-0.54;7.95;-0.10;0.37;-0.46;-9.80;8.12;9.17
4603;-5.02;-0.68;7.83;-0.10;0.37;-0.46;0.70;0.56;13.51
4612;-4.79;-1.03;7.54;-0.10;0.37;-0.46;10.29;-4.20;19.95
4621;-4.79;-0.98;7.38;-0.10;0.37;-0.46;16.31;-8.40;24.92
4630;-4.54;-1.02;7.23;-0.10;0.37;-0.46;19.32;-12.32;27.37
4639;-4.47;-0.98;7.19;-0.10;0.37;-0.46;17.43;-13.30;28.14
4647;-4.65;-0.88;7.40;-0.10;0.37;-0.47;10.85;-14.77;26.53
4656;-4.52;-0.73;7.71;-0.10;0.37;-0.47;2.03;-14.77;21.91
4665;-4.67;-0.57;8.14;-0.10;0.37;-0.47;-9.17;-11.76;17.22
4674;-4.85;-0.52;8.62;-0.11;0.38;-0.48;-16.59;-7.84;11.69
4682;-4.80;-0.57;8.87;-0.11;0.38;-0.48;-21.77;-4.41;4.41
4691;-4.72;-0.57;9.24;-0.11;0.38;-0.48;-25.90;0.35;-1.33
4700;-4.79;-0.62;9.13;-0.10;0.36;-0.47;-27.65;6.02;-0.91
4709;-4.50;-0.80;9.02;-0.10;0.36;-0.47;-24.99;3.78;-1.05
4717;-4.47;-0.77;8.65;-0.10;0.36;-0.47;-22.47;3.99;1.54
4726;-4.42;-0.73;8.67;-0.10;0.37;-0.47;-19.74;2.66;1.68
4735;-4.40;-0.70;8.56;-0.10;0.37;-0.47;-17.64;-0.77;3.85
4744;-4.57;-0.61;8.54;-0.10;0.37;-0.47;-16.17;-3.08;4.90
4753;-4.54;-0.47;8.62;-0.10;0.36;-0.47;-14.98;-5.67;6.37
4762;-4.67;-0.24;8.52;-0.10;0.36;-0.47;-12.25;-7.35;8.12
4770;-4.74;-0.37;8.48;-0.10;0.36;-0.47;-7.84;-10.29;9.59
4779;-4.44;-0.58;8.27;-0.10;0.35;-0.47;-1.68;-12.04;10.50
4788;-4.39;-0.50;8.20;-0.10;0.35;-0.47;1.61;-11.76;11.27
4797;-4.16;-0.42;8.08;-0.10;0.35;-0.47;1.12;-10.85;11.55
4805;-4.11;-0.40;8.02;-0.10;0.36;-0.47;-4.97;-10.29;8.61
4814;-4.20;-0.07;8.15;-0.10;0.36;-0.47;-13.58;-8.75;3.92
4823;-4.34;0.11;8.38;-0.10;0.36;-0.45;-21.84;-7.91;0.42
4832;-4.38;0.10;8.54;-0.10;0.36;-0.45;-26.46;-6.65;-2.73
4841;-4.55;0.06;8.93;-0.10;0.36;-0.45;-27.23;-5.25;-2.66
4850;-4.85;0.03;9.15;-0.10;0.34;-0.47;-23.45;-4.90;-0.84
4859;-4.70;-0.17;8.85;-0.10;0.34;-0.47;-11.48;-6.30;3.15
4867;-4.54;-0.23;8.48;-0.10;0.34;-0.47;0.84;-7.42;6.86
4876;-4.57;-0.28;8.25;-0.12;0.34;-0.46;7.91;-8.12;10.22
4885;-4.48;-0.23;7.98;-0.12;0.34;-0.46;8.26;-8.82;10.57
4894;-4.60;-0.04;7.81;-0.12;0.34;-0.46;5.39;-8.82;10.92
4903;-4.69;0.01;7.72;-0.12;0.35;-0.46;2.59;-10.64;9.38
4911;-4.86;0.05;7.80;-0.12;0.35;-0.46;1.05;-11.76;8.61
4920;-4.91;0.09;7.97;-0.12;0.35;-0.46;0.07;-12.32;7.42
4929;-4.89;0.04;8.34;-0.11;0.34;-0.46;0.35;-12.74;6.86
4938;-4.89;0.00;8.48;-0.11;0.34;-0.46;2.17;-10.99;5.46
4947;-4.71;-0.09;8.69;-0.11;0.34;-0.46;6.09;-8.47;4.34
4955;-4.65;-0.18;8.75;-0.11;0.35;-0.47;7.42;-4.83;3.85
4964;-4.83;-0.11;8.74;-0.11;0.35;-0.47;7.63;-2.31;3.78
4973;-4.87;-0.09;8.63;-0.11;0.35;-0.47;8.19;-1.68;2.17
4982;-4.92;-0.17;8.64;-0.12;0.35;-0.47;7.63;-1.54;0.35
4991;-5.18;-0.08;8.61;-0.12;0.35;-0.47;4.90;-2.80;-2.24
4999;-4.97;-0.26;8.84;-0.12;0.35;-0.47;1.05;-2.03;-2.38
5008;-4.87;-0.34;8.98;-0.12;0.35;-0.46;-1.89;0.07;-2.03
5017;-4.92;-0.28;9.08;-0.12;0.35;-0.46;-1.19;1.19;-2.52
5026;-4.87;-0.29;9.04;-0.12;0.35;-0.46;0.42;2.45;-2.80
5034;-4.80;-0.37;8.84;-0.12;0.35;-0.47;1.40;2.73;-2.59
5043;-4.55;-0.52;8.93;-0.12;0.35;-0.47;3.15;1.89;-2.87
5052;-4.56;-0.45;9.10;-0.12;0.35;-0.47;1.26;2.52;-3.71
5061;-4.44;-0.36;9.15;-0.11;0.36;-0.47;-2.59;2.80;-4.41
5069;-4.44;-0.40;9.37;-0.11;0.36;-0.47;-4.41;3.43;-5.04
5078;-4.47;-0.41;9.50;-0.11;0.36;-0.47;-6.72;5.39;-5.46
5087;-4.41;-0.29;9.56;-0.11;0.35;-0.47;-6.58;7.98;-5.32
5096;-4.46;-0.14;9.59;-0.11;0.35;-0.47;-3.01;9.24;-6.02
5104;-4.31;-0.19;9.50;-0.11;0.35;-0.47;0.91;10.36;-6.65
5113;-4.24;-0.37;9.33;-0.12;0.35;-0.46;4.27;9.87;-6.93
5122;-4.17;-0.55;10.90;-0.12;0.35;-0.46;6.86;9.24;-5.53
5131;-4.06;-0.71;8.82;-0.12;0.35;-0.46;7.98;8.05;-4.83
5140;-4.06;-0.75;8.59;-0.11;0.34;-0.46;8.54;5.95;-3.50
5148;-3.94;-0.78;8.43;-0.11;0.34;-0.46;10.01;3.36;-2.24
5157;-3.96;-0.80;8.40;-0.11;0.35;-0.46;9.66;1.54;-0.84
5166;-3.96;-0.68;8.42;-0.11;0.35;-0.46;8.33;0.42;-0.35
5175;-3.98;-0.59;8.35;-0.11;0.35;-0.46;4.41;0.56;-0.98
5184;-3.97;-0.66;8.54;-0.11;0.36;-0.46;0.21;1.26;-1.33
5192;-3.97;-0.76;8.69;-0.11;0.36;-0.46;-1.68;2.94;-2.80
5201;-3.99;-0.75;8.61;-0.11;0.36;-0.46;-3.50;4.97;-4.34
5210;-4.06;-0.85;8.58;-0.11;0.36;-0.47;-3.36;8.54;-4.97
5219;-4.30;-0.83;8.36;-0.11;0.36;-0.47;-3.78;10.71;-4.55
5228;-4.39;-0.87;8.44;-0.11;0.36;-0.47;-3.08;12.11;-4.48
5236;-4.52;-0.83;8.20;-0.10;0.35;-0.44;-2.24;11.55;-3.29
5245;-4.64;-0.60;8.00;-0.10;0.35;-0.44;-2.80;8.68;-2.24
5254;-4.59;-0.64;7.81;-0.10;0.35;-0.44;-3.92;5.81;-1.75
5263;-4.68;-0.65;8.06;-0.10;0.35;-0.46;-4.90;3.29;-1.26
5272;-4.67;-0.57;8.12;-0.10;0.35;-0.46;-3.85;1.47;0.07
5280;-4.71;-0.51;8.20;-0.10;0.35;-0.46;-1.96;0.14;1.54
5289;-4.78;-0.24;8.31;-0.10;0.35;-0.47;0.70;0.35;2.17
5298;-4.88;-0.23;8.25;-0.10;0.35;-0.47;1.96;1.26;1.82
5307;-4.88;-0.08;8.18;-0.10;0.35;-0.47;1.33;2.24;0.70
5315;-4.81;-0.16;8.25;-0.10;0.35;-0.47;-1.33;2.66;0.49
5324;-4.80;-0.14;8.26;-0.10;0.35;-0.47;-2.38;2.66;0.14
5333;-4.70;-0.10;8.28;-0.10;0.35;-0.47;-3.22;2.94;0.70
5342;-4.81;-0.06;8.30;-0.10;0.36;-0.46;-3.08;2.59;1.47
5351;-4.73;-0.16;8.21;-0.10;0.36;-0.46;-4.20;0.77;1.68
5359;-4.59;-0.24;8.19;-0.10;0.36;-0.46;-4.27;-0.21;2.24
5368;-4.50;-0.23;8.20;-0.10;0.34;-0.46;-3.22;-0.63;3.22
5377;-4.37;-0.18;8.33;-0.10;0.34;-0.46;-1.54;-0.63;3.01
5386;-4.42;-0.24;8.43;-0.10;0.34;-0.46;0.14;0.21;2.59
5394;-4.46;-0.24;8.52;-0.10;0.35;-0.46;-0.28;1.33;1.61
5403;-4.41;-0.24;8.54;-0.10;0.35;-0.46;-0.84;2.10;0.63
5412;-4.43;-0.17;8.41;-0.10;0.35;-0.46;-2.73;0.84;0.14
5421;-4.41;-0.30;8.38;-0.09;0.35;-0.46;-3.92;-0.70;-0.35
5429;-4.27;-0.34;8.42;-0.09;0.35;-0.46;-4.06;-2.31;-0.70
5438;-4.18;-0.36;8.57;-0.09;0.35;-0.46;-2.80;-2.87;0.00
5447;-4.10;-0.50;8.43;-0.10;0.34;-0.47;-1.61;-2.59;0.84
5456;-4.02;-0.53;8.63;-0.10;0.34;-0.47;-1.26;-1.61;2.03
5464;-4.35;-0.35;8.72;-0.10;0.35;-0.46;-1.47;-1.19;2.10
5473;-4.29;-0.32;8.60;-0.10;0.35;-0.46;-2.66;-1.47;1.54
5482;-4.21;-0.37;8.76;-0.10;0.35;-0.46;-3.15;-1.33;-0.07
5491;-4.31;-0.32;8.88;-0.10;0.35;-0.47;-3.29;-2.03;-1.96
5500;-4.09;-0.48;8.84;-0.10;0.35;-0.47;-2.94;-3.57;-3.36
5508;-4.03;-0.52;8.90;-0.10;0.35;-0.47;-2.52;-1.54;-0.49
5517;-4.06;-0.62;8.79;-0.10;0.35;-0.47;-3.43;-0.70;-0.35
5526;-3.80;-0.57;8.90;-0.10;0.35;-0.47;-3.08;-1.19;0.84
5535;-3.59;-0.63;8.94;-0.10;0.35;-0.47;-1.68;-0.56;1.68
5544;-3.71;-0.44;8.96;-0.10;0.35;-0.48;0.35;1.96;2.03
5553;-3.77;-0.27;8.84;-0.10;0.35;-0.48;0.56;2.38;1.47
5561;-3.83;-0.37;8.76;-0.10;0.35;-0.48;-2.87;3.99;-0.77
5570;-3.85;-0.17;8.72;-0.10;0.35;-0.47;-8.54;7.21;-2.94
5579;-3.70;-0.19;8.81;-0.10;0.35;-0.47;-14.21;10.64;-5.11
5588;-3.72;-0.22;8.74;-0.10;0.35;-0.47;-19.25;13.58;-7.77
5597;-3.44;-0.47;8.71;-0.09;0.35;-0.46;-21.00;13.44;-8.40
5606;-3.23;-0.73;8.76;-0.09;0.35;-0.46;-18.20;9.87;-6.79
5614;-3.08;-1.06;8.93;-0.09;0.35;-0.46;-9.38;3.57;-4.48
5623;-3.34;-0.92;9.02;-0.10;0.34;-0.47;2.66;-2.59;-1.54
5632;-3.34;-0.90;9.07;-0.10;0.34;-0.47;14.14;-6.79;0.91
5641;-3.26;-0.88;9.15;-0.10;0.34;-0.47;16.73;-8.19;1.40
5649;-2.86;-0.90;8.97;-0.10;0.34;-0.46;14.70;-6.37;0.07
5658;-2.94;-0.70;8.88;-0.10;0.34;-0.46;10.50;-1.33;-0.42
5667;-2.94;-0.73;8.85;-0.10;0.34;-0.46;4.13;1.68;-2.45
5676;-2.98;-0.55;8.99;-0.10;0.34;-0.46;-1.33;4.90;-5.04
5684;-3.03;-0.39;9.07;-0.10;0.34;-0.46;-9.10;8.89;-8.26
5693;-2.79;-0.50;9.20;-0.10;0.34;-0.46;-16.73;12.81;-12.46
5702;-2.71;-0.38;9.20;-0.09;0.33;-0.46;-26.81;15.82;-16.45
5711;-2.49;-0.42;9.10;-0.09;0.33;-0.46;-35.84;18.76;-21.21
5720;-2.08;-0.26;9.17;-0.09;0.33;-0.46;-45.01;21.63;-25.76
5729;-1.74;0.01;8.89;-0.09;0.33;-0.46;-53.76;21.28;-28.84
5737;-1.46;0.10;9.65;-0.09;0.33;-0.46;-57.96;22.75;-28.00
5746;-0.94;0.87;10.11;-0.09;0.33;-0.46;-49.91;13.51;-35.91
5755;-0.38;1.65;10.58;-0.08;0.31;-0.47;-33.53;4.41;-36.33
5764;0.29;2.06;10.95;-0.08;0.31;-0.47;-9.66;-7.07;-38.36
5773;1.09;2.89;11.04;-0.09;0.32;-0.47;19.60;-16.31;-32.48
5781;2.02;3.74;11.06;-0.09;0.32;-0.47;70.91;-28.63;-29.40
5790;2.79;5.17;10.92;-0.09;0.32;-0.47;93.94;-37.52;-29.54
5799;3.44;6.78;10.74;-0.09;0.34;-0.46;123.34;-37.73;-35.21
5808;4.25;7.95;10.16;-0.09;0.34;-0.46;138.67;-24.29;-45.01
5817;4.04;9.18;8.92;-0.09;0.34;-0.46;134.05;-7.63;-67.76
5825;3.59;10.55;6.49;-0.08;0.35;-0.46;112.35;5.67;-93.73
5834;2.24;11.59;4.39;-0.08;0.35;-0.46;81.27;9.66;-116.69
5843;-1.64;12.22;1.11;-0.08;0.35;-0.46;53.06;1.68;-140.84
5852;-5.97;12.61;-1.83;-0.08;0.36;-0.48;45.99;-25.90;-186.48
5860;-11.12;12.29;-5.18;-0.08;0.36;-0.48;38.29;-64.89;-224.56
5869;-17.50;9.59;-6.42;-0.08;0.36;-0.48;17.64;-114.59;-255.64
5878;-22.51;6.35;-5.31;-0.09;0.36;-0.47;-9.24;-182.21;-275.59
5887;-26.40;1.74;-0.52;-0.09;0.36;-0.47;-35.56;-225.82;-301.70
5896;-32.73;-7.08;5.72;-0.09;0.36;-0.47;-86.45;-241.29;-335.72
5905;-37.25;-21.03;13.12;-0.13;0.35;-0.45;-228.97;-216.72;-354.34
5913;-32.78;-38.48;23.50;-0.13;0.35;-0.45;-374.50;-94.29;-323.89
5922;-25.67;-41.54;22.68;-0.13;0.35;-0.45;-452.83;26.18;-147.21
5931;-18.59;-29.71;16.63;-0.12;0.28;-0.44;-306.18;143.15;76.79
5940;-18.21;-9.97;10.49;-0.12;0.28;-0.44;58.73;134.89;280.49
5949;-17.45;8.38;5.59;-0.12;0.28;-0.44;344.05;72.59;367.29
5958;-11.34;22.75;3.85;-0.13;0.29;-0.44;484.05;29.61;359.73
5967;-5.36;30.77;3.74;-0.13;0.29;-0.44;410.48;7.63;273.35
5975;-0.50;30.71;2.36;-0.13;0.29;-0.44;182.98;-2.80;133.98
5984;1.38;24.25;1.73;-0.12;0.36;-0.46;-4.69;4.48;-0.77
5993;-0.57;15.69;1.73;-0.12;0.36;-0.46;-85.89;-5.46;-85.26
6002;-3.83;7.88;3.09;-0.12;0.36;-0.46;-101.08;-26.46;-118.09
6010;-6.76;1.25;6.38;-0.13;0.34;-0.45;-86.31;-38.57;-100.31
6019;-8.76;-3.91;9.73;-0.13;0.34;-0.45;-57.96;-30.03;-50.19
6028;-8.66;-4.64;11.50;-0.13;0.34;-0.45;-21.35;-4.83;-8.89
6037;-7.87;-2.90;9.57;-0.14;0.34;-0.45;17.01;15.68;20.23
6046;-6.78;-0.17;7.47;-0.14;0.34;-0.45;46.27;26.11;48.72
6054;-5.33;2.85;5.66;-0.14;0.34;-0.43;65.52;21.21;60.13
6063;-4.31;5.17;4.97;-0.14;0.35;-0.43;65.24;10.64;47.67
6072;-3.98;5.61;4.94;-0.14;0.35;-0.43;27.65;-1.61;19.81
6081;-4.03;4.29;5.66;-0.14;0.36;-0.44;-20.51;-10.08;-14.00
6090;-4.64;1.87;6.68;-0.14;0.36;-0.44;-60.20;-18.83;-33.67
6098;-5.13;0.02;8.26;-0.14;0.36;-0.44;-67.06;-21.49;-35.98
6107;-5.18;-1.52;9.33;-0.14;0.34;-0.43;-49.42;-18.13;-22.96
6116;-5.23;-1.98;9.81;-0.14;0.34;-0.43;-23.94;-11.83;-5.81
6125;-5.55;-1.67;9.35;-0.14;0.34;-0.43;-5.60;-3.36;7.00
6134;-5.67;-1.18;8.66;-0.14;0.33;-0.45;-2.80;1.47;13.93
6142;-5.91;-0.26;7.94;-0.14;0.33;-0.45;-3.92;3.64;16.59
6151;-5.98;0.37;7.39;-0.14;0.33;-0.45;17.85;3.78;18.83
6160;-5.86;1.05;7.05;-0.13;0.33;-0.45;9.73;1.68;20.16
6169;-5.92;1.54;6.82;-0.13;0.33;-0.45;17.15;-3.43;19.11
6177;-5.89;1.64;7.12;-0.13;0.33;-0.45;16.24;-7.42;11.41
6186;-6.22;1.28;7.85;-0.14;0.34;-0.46;4.20;-6.44;3.22
6195;-6.54;0.88;8.51;-0.14;0.34;-0.46;-9.73;-3.43;-2.59
6204;-6.81;0.37;8.71;-0.14;0.34;-0.46;-12.81;1.33;-2.73
6213;-6.78;0.34;8.56;-0.14;0.34;-0.46;-6.58;7.56;4.34
6221;-6.86;0.74;7.98;-0.14;0.34;-0.46;6.51;10.71;10.43
6230;-6.78;0.68;7.49;-0.14;0.34;-0.46;16.87;11.69;14.14
6239;-6.80;0.63;7.05;-0.15;0.34;-0.45;20.16;10.85;16.31
6248;-6.61;0.56;6.74;-0.15;0.34;-0.45;19.32;7.70;15.54
6257;-6.61;0.41;6.60;-0.15;0.34;-0.45;15.75;3.78;12.95
6265;-6.49;0.27;6.65;-0.13;0.34;-0.45;9.59;0.77;9.80
6274;-6.47;0.38;6.83;-0.13;0.34;-0.45;-0.77;-1.82;4.06
6283;-6.40;0.55;7.14;-0.13;0.34;-0.45;-13.02;-2.80;0.00
6292;-6.39;0.62;7.63;-0.13;0.34;-0.46;-15.75;-3.57;-1.54
6301;-6.40;0.77;7.90;-0.13;0.34;-0.46;-13.93;-2.94;1.96
6310;-6.28;0.88;8.14;-0.13;0.34;-0.46;-7.21;-1.40;4.55
6318;-6.26;0.69;8.20;-0.14;0.35;-0.45;-0.98;-0.56;5.74
6327;-6.35;0.47;8.03;-0.14;0.35;-0.45;-0.49;1.89;5.95
6336;-6.35;0.46;8.00;-0.14;0.35;-0.45;-2.73;3.36;5.81
6345;-6.27;0.41;8.08;-0.14;0.34;-0.46;-3.43;3.22;5.25
6354;-6.36;0.50;8.10;-0.14;0.34;-0.46;-3.15;3.64;5.46
6363;-6.14;0.83;8.15;-0.14;0.34;-0.45;-0.35;4.13;7.21
6371;-5.86;1.04;8.06;-0.13;0.34;-0.45;4.97;3.36;8.40
6380;-5.74;1.14;7.65;-0.13;0.34;-0.45;7.84;2.80;6.86
6389;-5.58;1.22;7.65;-0.14;0.34;-0.45;5.53;2.10;5.11
6398;-5.61;1.08;7.40;-0.14;0.34;-0.45;1.47;2.38;3.43
6407;-5.58;1.04;7.42;-0.14;0.34;-0.45;-0.91;2.80;1.54
6416;-5.74;0.83;7.34;-0.13;0.35;-0.46;-2.31;2.87;0.49
6424;-6.04;0.67;7.39;-0.13;0.35;-0.46;-3.64;2.94;0.56
6433;-6.16;0.63;7.24;-0.13;0.35;-0.46;-3.78;1.75;0.00
6442;-6.06;0.49;7.40;-0.14;0.35;-0.46;-3.99;1.26;-0.63
6451;-6.14;0.43;7.41;-0.14;0.35;-0.46;-3.78;1.12;-0.42
6459;-6.24;0.42;7.41;-0.14;0.35;-0.46;-4.13;1.05;0.28
6468;-6.27;0.50;7.45;-0.13;0.34;-0.45;-3.64;-0.14;0.63
6477;-6.37;0.51;7.59;-0.13;0.34;-0.45;-1.26;-1.19;2.73
6486;-6.22;0.76;7.54;-0.13;0.34;-0.45;2.03;-0.49;5.25
6495;-6.40;0.75;7.57;-0.13;0.35;-0.46;7.49;-0.49;6.44
6503;-6.35;0.80;7.56;-0.13;0.35;-0.46;11.06;-1.26;7.84
6512;-6.01;0.76;7.44;-0.13;0.35;-0.46;13.30;-2.03;8.19
6521;-6.05;0.67;7.21;-0.13;0.35;-0.45;12.04;-0.77;6.72
6530;-6.14;0.62;7.26;-0.13;0.35;-0.45;3.92;1.05;4.06
6539;-6.14;0.45;7.29;-0.13;0.35;-0.45;-4.41;1.68;1.40
6547;-6.19;0.55;7.37;-0.14;0.35;-0.45;-8.61;1.96;0.91
6556;-6.24;0.84;7.36;-0.14;0.35;-0.45;-7.21;0.84;2.87
6565;-5.92;1.04;7.65;-0.14;0.35;-0.45;-1.40;0.42;4.55
6574;-6.12;1.18;7.57;-0.14;0.35;-0.46;4.97;-1.19;6.37
6583;-6.12;1.17;7.61;-0.14;0.35;-0.46;8.12;-1.05;6.93
6592;-6.27;1.08;7.61;-0.14;0.35;-0.46;8.26;-1.68;8.61
6600;-6.13;0.85;7.77;-0.13;0.35;-0.46;9.03;-2.80;6.44
6609;-6.51;0.49;7.80;-0.13;0.35;-0.46;5.60;-0.21;6.72
6618;-6.58;0.07;7.87;-0.13;0.35;-0.46;-0.84;1.33;5.60
6627;-6.75;0.02;7.95;-0.12;0.35;-0.45;-5.53;2.59;7.35
6635;-6.63;0.08;8.05;-0.12;0.35;-0.45;-5.04;3.64;12.81
6644;-6.22;0.69;7.77;-0.12;0.35;-0.45;6.51;3.29;22.54
6653;-6.22;1.10;7.67;-0.13;0.34;-0.46;29.40;-0.49;30.45
6662;-6.00;1.42;7.65;-0.13;0.34;-0.46;45.85;-4.76;53.48
6671;-5.89;1.56;7.57;-0.14;0.35;-0.45;54.32;-7.14;38.43
6679;-5.85;1.62;7.55;-0.14;0.35;-0.45;55.79;-8.82;35.21
6688;-6.08;1.48;7.41;-0.14;0.35;-0.45;45.57;-6.79;28.14
6697;-6.35;1.04;7.51;-0.14;0.37;-0.46;29.47;-4.55;17.99
6706;-6.59;0.58;7.31;-0.14;0.37;-0.46;9.52;1.05;8.96
6715;-6.81;-0.04;9.10;-0.14;0.37;-0.46;-13.37;7.14;1.75
6724;-7.16;-0.67;7.24;-0.14;0.37;-0.46;-31.36;13.58;-2.80
6732;-7.23;-1.11;7.33;-0.14;0.37;-0.46;-39.69;18.06;-0.77
6741;-7.18;-1.18;7.39;-0.14;0.37;-0.46;-35.28;19.39;7.42
6750;-7.08;-1.03;7.39;-0.13;0.36;-0.45;-20.72;19.25;18.20
6759;-9.11;-0.70;7.42;-0.13;0.36;-0.45;-4.62;16.66;28.07
6767;-7.51;-0.40;7.62;-0.13;0.36;-0.45;10.15;12.46;35.35
6776;-7.38;0.04;7.62;-0.13;0.37;-0.46;25.48;7.91;37.94
6785;-7.24;0.17;7.47;-0.13;0.37;-0.46;33.53;5.81;36.40
6794;-7.21;0.22;7.43;-0.13;0.37;-0.46;32.69;8.12;31.64
6802;-7.26;0.34;7.04;-0.13;0.38;-0.46;24.64;12.11;23.10
6811;-7.09;0.14;6.83;-0.13;0.38;-0.46;11.90;17.01;15.12
6820;-6.80;-0.18;6.67;-0.13;0.38;-0.46;2.10;22.40;9.24
6829;-6.70;-0.19;6.16;-0.14;0.38;-0.46;-8.12;25.83;5.11
6837;-6.68;-0.38;6.09;-0.14;0.38;-0.46;-15.96;24.29;3.36
6846;-6.81;-0.19;6.31;-0.14;0.38;-0.46;-20.23;23.31;5.53
6855;-6.93;-0.14;6.59;-0.13;0.38;-0.47;-20.44;21.21;6.79
6864;-7.18;-0.31;6.82;-0.13;0.38;-0.47;-16.45;17.57;7.49
6873;-7.11;-0.22;7.08;-0.13;0.38;-0.47;-7.84;12.39;12.18
6882;-6.86;-0.34;7.34;-0.14;0.38;-0.46;-0.49;9.59;14.84
6890;-6.68;-0.11;7.54;-0.14;0.38;-0.46;9.17;11.34;21.14
6899;-6.58;-0.07;7.48;-0.14;0.38;-0.46;13.79;13.93;24.36
6908;-6.38;0.09;7.43;-0.12;0.37;-0.47;10.08;18.76;20.44
6917;-6.32;0.10;7.40;-0.12;0.37;-0.47;1.61;23.94;15.82
6926;-6.37;0.19;7.33;-0.12;0.37;-0.47;-10.71;29.47;12.04
6934;-6.39;0.29;7.21;-0.13;0.38;-0.46;-26.74;34.16;8.82
6943;-6.27;0.26;7.42;-0.13;0.38;-0.46;-38.92;36.05;7.70
6952;-6.17;-0.05;7.34;-0.13;0.38;-0.46;-45.50;37.94;10.29
6961;-6.13;-0.19;7.54;-0.10;0.38;-0.47;-43.61;38.71;15.47
6970;-6.20;0.05;7.56;-0.10;0.38;-0.47;-34.58;35.00;21.21
6978;-6.07;0.11;7.62;-0.10;0.36;-0.46;-22.61;30.38;25.62
6987;-6.14;0.09;7.50;-0.10;0.36;-0.46;-10.15;23.66;30.38
6996;-6.04;0.24;7.39;-0.10;0.36;-0.46;-1.19;16.73;35.28
7005;-5.94;0.19;7.27;-0.10;0.37;-0.48;1.68;9.52;39.20
7014;-5.80;0.24;7.47;-0.10;0.37;-0.48;1.47;3.29;39.97
7023;-5.51;0.35;7.69;-0.10;0.37;-0.48;-0.35;0.35;39.34
7031;-5.36;0.26;8.05;-0.10;0.37;-0.46;-3.64;0.77;36.19
7040;-5.18;0.12;8.26;-0.10;0.37;-0.46;-8.75;4.06;32.20
7049;-5.05;0.02;8.50;-0.10;0.37;-0.46;-16.31;8.68;27.16
7058;-5.07;-0.09;8.96;-0.10;0.36;-0.47;-24.29;16.03;25.20
7067;-5.37;-0.15;8.94;-0.10;0.36;-0.47;-30.87;18.69;25.34
7075;-5.14;-0.13;8.94;-0.10;0.36;-0.47;-33.74;18.20;25.62
7084;-5.08;-0.04;9.02;-0.10;0.37;-0.46;-29.68;18.34;24.64
7093;-5.01;0.01;8.79;-0.10;0.37;-0.46;-19.95;14.91;24.29
7102;-4.91;-0.14;8.64;-0.10;0.37;-0.46;-8.05;10.29;24.99
7111;-4.81;-0.47;8.26;-0.09;0.36;-0.46;4.62;3.08;28.07
7120;-4.61;-0.65;7.80;-0.09;0.36;-0.46;13.23;-3.71;32.69
7128;-4.53;-0.54;7.59;-0.09;0.36;-0.46;17.92;-8.68;36.26
7137;-4.27;-0.40;7.64;-0.10;0.36;-0.45;17.01;-11.62;36.19
7146;-4.29;-0.35;8.05;-0.10;0.36;-0.45;8.54;-10.08;34.02
7155;-4.32;-0.22;8.41;-0.10;0.36;-0.45;-1.82;-5.25;30.73
7164;-4.59;-0.08;8.60;-0.10;0.36;-0.46;-11.55;2.24;24.50
7173;-4.72;-0.08;8.78;-0.10;0.36;-0.46;-15.82;9.24;18.76
7181;-4.97;-0.23;8.71;-0.10;0.36;-0.46;-16.10;13.79;15.26
7190;-5.26;-0.38;8.48;-0.10;0.35;-0.45;-13.44;14.84;14.70
7199;-5.08;-0.58;8.22;-0.10;0.35;-0.45;-7.91;11.41;17.01
7208;-4.95;-0.83;7.83;-0.10;0.35;-0.45;-1.54;8.40;20.86
7217;-4.86;-0.83;7.72;-0.10;0.35;-0.45;3.78;5.11;25.69
7225;-4.57;-0.78;7.56;-0.10;0.35;-0.45;7.21;0.63;25.20
7234;-4.49;-0.68;7.70;-0.10;0.35;-0.45;4.20;-1.54;21.56
7243;-4.43;-0.32;7.52;-0.10;0.37;-0.46;-3.57;-0.56;20.93
7252;-4.47;-0.24;7.59;-0.10;0.37;-0.46;-15.12;0.91;16.66
7261;-4.42;-0.17;7.91;-0.09;0.36;-0.46;-26.74;3.78;13.02
7269;-4.62;-0.17;8.16;-0.09;0.36;-0.46;-30.45;6.86;11.06
7278;-4.68;-0.06;8.40;-0.09;0.36;-0.46;-26.88;9.38;9.94
7287;-4.67;-0.17;8.38;-0.10;0.35;-0.46;-19.11;9.31;8.89
7296;-4.81;-0.19;8.23;-0.10;0.35;-0.46;-7.84;8.47;9.45
7305;-4.76;-0.37;7.95;-0.10;0.35;-0.46;1.82;6.65;13.65
7313;-4.64;-0.47;7.67;-0.10;0.35;-0.47;10.85;1.19;16.66
7322;-4.64;-0.45;7.59;-0.10;0.35;-0.47;15.68;-4.76;19.04
7331;-4.48;-0.46;7.39;-0.10;0.35;-0.47;14.63;-8.89;19.67
7340;-4.62;-0.31;7.46;-0.10;0.35;-0.47;12.25;-12.25;21.35
7349;-4.56;-0.28;7.65;-0.10;0.35;-0.47;7.63;-15.26;19.74
7358;-4.54;-0.16;8.10;-0.10;0.35;-0.47;1.68;-12.67;19.25
7366;-4.79;0.08;8.45;-0.11;0.37;-0.45;0.42;-11.41;14.84
7375;-4.57;0.22;8.63;-0.11;0.37;-0.45;0.21;-7.42;9.24
7384;-4.70;0.19;8.79;-0.11;0.37;-0.45;0.00;-4.34;5.32
7393;-4.69;0.15;8.79;-0.11;0.36;-0.45;0.42;-2.73;2.94
7401;-4.61;0.14;8.79;-0.11;0.36;-0.45;0.07;-1.89;3.29
7410;-4.78;0.09;8.94;-0.11;0.36;-0.45;-0.21;-1.26;6.23
7419;-4.64;-0.05;8.92;-0.11;0.37;-0.45;-1.68;-0.49;8.12
7428;-4.32;-0.04;9.24;-0.11;0.37;-0.45;-5.18;2.73;8.68
7436;-4.41;0.09;9.40;-0.11;0.37;-0.45;-6.23;6.23;10.36
7445;-4.35;0.24;9.45;-0.11;0.36;-0.46;-9.73;9.73;9.03
7454;-4.11;0.25;9.48;-0.11;0.36;-0.46;-14.63;12.88;6.58
7463;-4.14;0.39;9.60;-0.11;0.36;-0.46;-17.50;16.45;4.97
7472;-4.19;0.62;9.49;-0.10;0.35;-0.46;-17.78;17.50;2.45
7481;-3.99;0.42;9.27;-0.10;0.35;-0.46;-15.19;17.15;-1.40
7489;-3.92;0.49;9.04;-0.10;0.35;-0.46;-7.42;15.68;-4.41
7498;-3.95;0.14;8.93;-0.11;0.36;-0.46;3.15;12.32;-5.60
7507;-3.91;-0.32;8.94;-0.11;0.36;-0.46;8.75;10.57;-6.23
7516;-4.16;-0.43;8.97;-0.11;0.36;-0.46;7.91;8.82;-5.11
7524;-4.19;-0.47;8.84;-0.09;0.35;-0.48;6.30;6.65;-3.64
7533;-4.11;-0.85;8.69;-0.09;0.35;-0.48;6.44;4.48;-1.68
7542;-4.16;-1.06;8.67;-0.09;0.35;-0.48;9.87;0.98;0.14
7551;-4.30;-1.08;8.66;-0.09;0.36;-0.47;13.86;-1.68;1.40
7560;-4.21;-1.18;8.56;-0.09;0.36;-0.47;15.75;-2.31;2.59
7568;-4.17;-1.07;8.49;-0.09;0.36;-0.47;13.93;-1.68;1.82
7577;-4.31;-0.99;8.53;-0.09;0.36;-0.47;6.44;0.70;0.70
7586;-4.28;-1.06;8.64;-0.09;0.36;-0.47;0.49;3.22;0.35
7595;-4.27;-1.03;8.89;-0.10;0.36;-0.46;-2.80;5.81;0.84
7604;-4.50;-0.98;8.79;-0.10;0.36;-0.46;-3.78;6.02;1.54
7612;-4.38;-0.93;8.48;-0.10;0.36;-0.46;0.21;5.04;2.31
7621;-4.42;-0.92;8.23;-0.09;0.36;-0.46;4.34;3.01;2.66
7630;-4.57;-0.82;7.93;-0.09;0.36;-0.46;5.39;0.56;2.52
7639;-4.69;-0.80;7.72;-0.09;0.36;-0.46;4.55;-1.33;2.31
7648;-4.66;-0.71;7.65;-0.09;0.36;-0.46;1.82;-1.89;2.66
7656;-4.77;-0.67;7.70;-0.09;0.36;-0.46;-3.43;-2.17;2.87
7665;-4.62;-0.58;7.88;-0.09;0.36;-0.46;-8.40;-2.59;2.10
7674;-4.85;-0.43;8.13;-0.09;0.36;-0.47;-11.13;-2.80;0.77
7682;-4.76;-0.40;8.59;-0.09;0.36;-0.47;-11.48;-3.78;-0.21
7691;-4.61;-0.31;8.71;-0.09;0.36;-0.47;-8.75;-2.73;-0.21
7700;-4.49;-0.31;8.71;-0.09;0.36;-0.46;-3.85;-1.96;-0.63
7709;-4.29;-0.24;8.61;-0.09;0.36;-0.46;-1.19;-1.61;-0.91
7718;-4.21;-0.21;8.65;-0.09;0.36;-0.46;-1.61;-0.77;-0.70
7727;-4.03;-0.45;8.51;-0.10;0.36;-0.47;-2.38;-0.91;-0.14
7735;-3.78;-0.54;8.66;-0.10;0.36;-0.47;-1.89;-2.24;0.14
7744;-3.65;-0.64;8.82;-0.10;0.36;-0.47;1.47;-2.94;1.19
7753;-5.49;-0.84;8.83;-0.10;0.36;-0.46;6.72;-2.87;2.52
7762;-3.51;-0.88;8.79;-0.10;0.36;-0.46;12.60;-1.61;3.78
7771;-3.57;-0.76;8.72;-0.10;0.36;-0.46;16.17;2.03;4.48
7779;-3.70;-0.76;8.46;-0.08;0.36;-0.46;14.35;4.27;4.76
7788;-3.64;-0.73;8.26;-0.08;0.36;-0.46;10.22;6.09;3.92
7797;-3.63;-0.78;8.16;-0.08;0.36;-0.46;5.67;6.65;2.80
7806;-3.73;-0.75;8.26;-0.09;0.36;-0.46;1.75;5.11;1.75
7815;-3.82;-0.66;8.38;-0.09;0.36;-0.46;1.19;3.71;0.98
7823;-3.98;-0.73;8.26;-0.09;0.36;-0.46;0.56;2.52;0.70
7832;-4.14;-0.68;8.36;-0.08;0.36;-0.47;0.07;2.17;0.49
7841;-4.36;-0.75;8.38;-0.08;0.36;-0.47;-0.84;1.61;0.77
7850;-4.57;-0.76;8.38;-0.08;0.36;-0.47;-2.87;1.61;0.56
7859;-4.68;-0.75;8.43;-0.09;0.35;-0.46;-4.62;1.05;-0.56
7867;-4.75;-0.78;8.42;-0.09;0.35;-0.46;-5.74;0.56;-2.17
7876;-5.05;-0.71;8.50;-0.09;0.35;-0.47;-7.21;-0.28;-3.50
7885;-5.20;-0.70;8.50;-0.09;0.36;-0.47;-8.89;-1.33;-3.92
7894;-5.20;-0.72;8.70;-0.09;0.36;-0.47;-9.59;-2.38;-3.64
7903;-5.33;-0.72;8.88;-0.08;0.36;-0.46;-9.80;-2.45;-2.87
7911;-5.34;-0.76;9.08;-0.08;0.36;-0.46;-9.31;-2.52;-1.54
7920;-5.30;-0.73;9.07;-0.08;0.36;-0.46;-7.49;-1.82;1.19
7929;-5.29;-0.57;8.97;-0.09;0.35;-0.47;-4.83;-1.47;2.03
7938;-5.15;-0.54;8.82;-0.09;0.35;-0.47;-2.87;-0.56;3.08
7947;-5.16;-0.47;8.87;-0.09;0.35;-0.47;-1.12;0.35;3.08
7955;-5.06;-0.29;8.76;-0.10;0.35;-0.46;-0.56;1.40;3.29
7964;-4.87;-0.37;8.66;-0.10;0.35;-0.46;-1.05;2.31;3.29
7973;-4.74;-0.43;8.76;-0.10;0.35;-0.46;-1.47;3.50;2.87
7982;-4.55;-0.42;8.62;-0.09;0.35;-0.46;-1.40;4.55;2.52
7991;-4.39;-0.47;8.66;-0.09;0.35;-0.46;-0.21;4.90;1.96
7999;-4.24;-0.54;8.45;-0.09;0.35;-0.46;1.19;4.55;2.52
8008;-4.07;-0.69;8.40;-0.09;0.36;-0.47;1.89;4.41;2.80
8017;-3.98;-0.63;8.29;-0.09;0.36;-0.47;2.87;3.71;3.08
8026;-3.78;-0.75;8.18;-0.09;0.36;-0.47;3.36;2.87;2.38
8035;-3.69;-0.63;8.15;-0.09;0.36;-0.47;1.96;1.54;1.26
8044;-3.40;-0.81;8.25;-0.09;0.36;-0.47;-1.12;-0.49;0.56
8052;-3.35;-0.86;8.28;-0.09;0.36;-0.47;-5.60;-1.26;-1.05
8061;-3.37;-0.77;8.66;-0.10;0.35;-0.46;-8.19;-3.08;-2.59
8070;-3.12;-0.97;8.94;-0.10;0.35;-0.46;-9.87;-4.48;-2.45
8079;-3.15;-1.02;9.25;-0.10;0.35;-0.46;-10.99;-4.48;-1.96
8088;-2.91;-1.15;9.61;-0.09;0.35;-0.46;-10.78;-4.69;-2.31
8096;-2.67;-1.28;9.81;-0.09;0.35;-0.46;-9.80;-3.64;-2.10
8105;-2.58;-1.28;10.01;-0.09;0.35;-0.46;-9.59;-2.24;-1.75
8114;-2.20;-1.37;10.04;-0.08;0.35;-0.47;-9.94;-0.63;-1.54
8123;-2.23;-1.27;9.96;-0.08;0.35;-0.47;-10.71;0.14;-1.89
8132;-2.27;-1.07;9.91;-0.08;0.35;-0.47;-10.99;0.70;-2.24
8141;-1.98;-0.89;9.99;-0.09;0.34;-0.46;-11.62;1.89;-3.43
8150;-2.12;-0.59;9.86;-0.09;0.34;-0.46;-14.28;4.62;-5.88
8158;-1.90;-0.54;9.65;-0.09;0.34;-0.46;-18.69;6.79;-9.59
8167;-1.69;-0.50;9.40;-0.09;0.34;-0.46;-24.22;8.05;-14.63
8176;-1.51;-0.45;9.28;-0.09;0.34;-0.46;-27.86;9.17;-19.74
8185;-1.39;-0.48;9.32;-0.09;0.33;-0.46;-31.50;11.55;-23.45
8193;-1.32;-0.58;9.63;-0.09;0.33;-0.46;-33.11;10.57;-27.02
8202;-1.33;-0.48;9.62;-0.09;0.33;-0.46;-32.90;11.55;-30.03
8211;-1.75;-0.55;9.65;-0.08;0.33;-0.46;-33.39;15.40;-30.03
8220;-1.69;-0.90;9.88;-0.08;0.33;-0.46;-35.35;18.20;-29.61
8229;-1.74;-0.54;9.25;-0.08;0.33;-0.46;-37.10;22.96;-27.23
8237;-1.69;-0.39;9.16;-0.08;0.32;-0.46;-35.21;22.40;-29.26
8246;-1.77;-0.45;8.87;-0.08;0.32;-0.46;-31.78;19.60;-30.80
8255;-1.66;-0.50;8.85;-0.08;0.32;-0.46;-31.01;16.52;-29.33
8264;-1.63;-0.50;8.73;-0.08;0.32;-0.46;-29.82;12.11;-27.65
8273;-1.44;-0.43;8.80;-0.08;0.32;-0.46;-28.84;6.86;-26.46
8282;-1.47;-0.36;8.94;-0.08;0.32;-0.46;-24.71;0.70;-27.16
8290;-1.41;-0.17;9.02;-0.07;0.31;-0.46;-20.44;-3.36;-26.81
8299;-1.70;0.05;9.21;-0.07;0.31;-0.46;-18.62;-3.78;-28.28
8308;-1.98;0.64;9.21;-0.07;0.31;-0.46;-22.54;-5.11;-34.86
8317;-1.76;1.16;9.07;-0.07;0.31;-0.44;-25.34;-11.41;-38.64
8326;-1.13;2.02;9.67;-0.07;0.31;-0.44;-34.02;-14.77;-42.42
8334;-1.36;2.63;10.04;-0.07;0.31;-0.44;-35.21;-19.67;-42.49
8343;-1.76;4.24;10.24;-0.07;0.30;-0.44;-36.82;-35.98;-52.85
8352;0.17;4.23;10.42;-0.07;0.30;-0.44;-16.59;-33.74;-57.40
8361;0.31;6.01;9.78;-0.07;0.30;-0.44;2.03;-28.00;-56.28
8370;0.27;7.26;9.02;-0.07;0.30;-0.46;21.42;-28.56;-48.65
8378;0.08;9.15;5.57;-0.07;0.30;-0.46;55.09;-26.74;-36.19
8387;-1.87;11.69;5.56;-0.07;0.30;-0.46;85.75;-34.23;-27.37
8396;-4.13;13.20;3.68;-0.09;0.31;-0.45;128.59;-51.03;-43.47
8405;-5.72;14.89;1.92;-0.09;0.31;-0.45;172.34;-78.68;-86.38
8414;-9.02;16.09;-0.57;-0.09;0.31;-0.45;209.93;-93.59;-157.01
8423;-15.62;13.85;-2.04;-0.08;0.33;-0.46;203.98;-107.80;-272.65
8431;-23.63;8.51;-3.22;-0.08;0.33;-0.46;106.19;-140.49;-373.45
8440;-33.29;-3.04;-1.46;-0.08;0.33;-0.46;-59.99;-176.82;-435.12
8449;-40.52;-22.45;5.13;-0.10;0.36;-0.46;-252.84;-177.24;-449.75
8458;-39.74;-41.78;17.26;-0.10;0.36;-0.46;-481.95;-81.62;-406.84
8467;-27.11;-42.34;19.52;-0.11;0.27;-0.42;-666.05;-21.07;-211.12
8476;-10.13;-29.36;14.85;-0.11;0.27;-0.42;-439.39;121.45;129.01
8485;-9.76;-6.48;14.08;-0.11;0.27;-0.42;27.86;147.98;365.40
8493;-13.59;15.48;8.81;-0.10;0.24;-0.40;405.93;88.83;417.13
8502;-13.06;32.15;10.49;-0.10;0.24;-0.40;659.40;-15.82;357.00
8511;-8.00;35.48;11.06;-0.10;0.24;-0.40;682.08;-72.73;209.72
8520;-0.33;32.58;5.86;-0.13;0.37;-0.44;359.52;-10.01;28.49
8529;4.15;24.53;0.57;-0.13;0.37;-0.44;-47.67;82.95;-61.95
8537;-0.38;11.83;-3.14;-0.13;0.37;-0.44;-257.53;102.62;-132.09
8546;-5.24;2.73;-3.87;-0.12;0.35;-0.46;-285.67;62.16;-177.03
8555;-7.90;-2.05;1.46;-0.12;0.35;-0.46;-194.25;8.05;-133.56
8564;-8.91;-4.00;5.18;-0.12;0.35;-0.46;-98.77;-39.13;-29.33
8573;-7.94;-2.58;9.56;-0.12;0.32;-0.45;-15.33;-44.10;35.63
8582;-6.69;0.62;11.05;-0.12;0.32;-0.45;54.74;-28.07;60.90
8590;-5.61;3.64;9.70;-0.12;0.32;-0.45;69.23;-3.50;57.61
8599;-4.58;4.65;7.84;-0.13;0.33;-0.45;37.94;18.62;43.89
8608;-3.92;4.50;6.24;-0.13;0.33;-0.45;27.23;23.73;27.65
8617;-3.63;4.28;5.61;-0.13;0.33;-0.45;-1.05;19.11;12.11
8625;-3.65;3.40;5.80;-0.12;0.33;-0.45;-20.09;8.96;-0.14
8634;-3.90;2.49;6.76;-0.12;0.33;-0.45;-31.57;-6.44;-7.07
8643;-4.31;1.56;8.20;-0.12;0.33;-0.45;-31.36;-17.99;-11.06
8652;-4.45;0.84;9.06;-0.12;0.33;-0.44;-22.96;-23.10;-10.78
8661;-4.49;0.29;9.64;-0.12;0.33;-0.44;-11.97;-16.45;-4.34
8670;-4.49;0.00;9.28;-0.12;0.33;-0.44;-5.18;-5.46;1.47
8678;-4.86;0.17;8.37;-0.13;0.32;-0.45;-3.43;1.26;4.41
8687;-5.00;0.49;7.93;-0.13;0.32;-0.45;-4.83;3.57;7.21
8696;-5.15;0.83;8.02;-0.13;0.32;-0.45;-5.81;2.52;5.25
8705;-5.48;1.38;8.04;-0.12;0.32;-0.45;-8.47;0.77;1.96
8714;-5.64;1.58;8.13;-0.12;0.32;-0.45;-12.11;-0.77;0.21
8723;-5.86;1.62;8.33;-0.12;0.32;-0.45;-11.20;-1.89;-2.94
8731;-6.11;1.45;8.43;-0.13;0.32;-0.45;-8.54;-2.87;-4.76
8740;-6.32;1.11;8.59;-0.13;0.32;-0.45;-5.95;-2.66;-3.85
8749;-6.43;0.75;8.74;-0.13;0.31;-0.44;0.07;-1.96;-2.10
8758;-6.43;0.39;8.63;-0.12;0.31;-0.44;5.39;-0.21;0.91
8766;-6.54;0.19;8.35;-0.12;0.31;-0.44;10.50;2.94;5.32
8775;-6.62;0.24;8.22;-0.13;0.33;-0.46;14.35;4.20;10.71
8784;-6.42;0.24;7.74;-0.13;0.33;-0.46;15.75;5.67;13.02
8793;-6.20;0.58;7.24;-0.13;0.33;-0.46;14.98;7.56;13.65
8802;-6.22;0.93;6.93;-0.12;0.33;-0.45;10.36;8.26;12.53
8811;-5.93;1.30;6.61;-0.12;0.33;-0.45;4.48;7.91;11.48
8819;-5.83;1.56;6.47;-0.12;0.33;-0.45;-1.33;4.06;8.75
8828;-5.64;1.85;6.68;-0.13;0.33;-0.45;-4.27;-0.49;7.49
8837;-5.41;2.12;6.96;-0.13;0.33;-0.45;-3.36;-4.62;5.74
8846;-5.23;2.21;7.33;-0.13;0.33;-0.45;-0.14;-6.86;3.15
8855;-5.36;2.05;7.47;-0.13;0.33;-0.44;1.12;-6.30;0.49
8863;-5.42;1.77;7.82;-0.13;0.33;-0.44;-2.45;-5.04;-3.22
8872;-5.54;1.56;8.01;-0.13;0.33;-0.44;-6.44;-3.71;-4.06
8881;-5.61;1.37;8.44;-0.13;0.33;-0.45;-6.51;-1.89;-4.34
8890;-5.58;1.31;8.64;-0.13;0.33;-0.45;-5.04;0.77;-3.64
8899;-5.61;1.39;8.62;-0.13;0.33;-0.45;-2.45;3.71;-1.40
8908;-5.57;1.34;8.33;-0.13;0.33;-0.44;1.26;5.18;0.63
8916;-5.48;1.50;7.93;-0.13;0.33;-0.44;4.48;4.48;1.61
8925;-5.45;1.60;7.60;-0.13;0.33;-0.44;7.35;2.73;2.38
8934;-5.41;1.54;7.44;-0.13;0.33;-0.44;6.72;-1.75;1.68
8943;-5.55;1.28;7.57;-0.13;0.33;-0.44;4.55;-4.76;1.96
8952;-5.61;1.27;7.64;-0.13;0.33;-0.44;2.38;-6.51;3.22
8961;-5.56;1.30;7.96;-0.13;0.32;-0.44;2.17;-7.00;3.99
8969;-5.53;1.32;8.03;-0.13;0.32;-0.44;2.38;-5.88;4.13
8978;-5.53;1.54;8.00;-0.13;0.32;-0.44;4.20;-3.71;4.41
8987;-5.60;1.57;8.10;-0.12;0.33;-0.45;5.81;-0.42;4.20
8996;-5.53;1.58;7.90;-0.12;0.33;-0.45;5.81;2.24;3.43
9005;-5.58;1.47;7.59;-0.12;0.33;-0.45;6.44;3.78;1.61
9013;-5.78;1.36;7.48;-0.12;0.33;-0.44;4.34;3.36;0.84
9022;-5.86;1.12;7.49;-0.12;0.33;-0.44;2.24;1.05;0.35
9031;-5.84;1.06;7.57;-0.12;0.33;-0.44;1.96;-1.40;0.91
9040;-5.81;1.11;7.44;-0.12;0.33;-0.44;3.64;-3.22;4.06
9049;-5.85;1.31;7.64;-0.12;0.33;-0.44;9.03;-4.34;6.79
9057;-5.80;1.48;7.68;-0.13;0.34;-0.45;14.70;-5.95;9.03
9066;-5.69;1.47;7.77;-0.13;0.34;-0.45;18.62;-6.72;10.64
9075;-5.66;1.62;7.66;-0.13;0.34;-0.45;19.60;-5.88;10.57
9084;-5.79;1.59;7.82;-0.13;0.33;-0.46;16.31;-4.69;8.19
9093;-5.68;1.59;7.75;-0.13;0.33;-0.46;9.80;-2.52;5.46
9101;-5.39;2.02;7.70;-0.13;0.33;-0.46;5.32;2.38;6.51
9110;-6.12;1.45;7.77;-0.12;0.34;-0.45;1.40;4.06;1.89
9119;-5.87;1.54;7.76;-0.12;0.34;-0.45;0.07;3.01;0.70
9128;-6.02;1.01;7.98;-0.12;0.34;-0.45;-0.42;2.73;2.87
9137;-5.99;1.07;7.77;-0.12;0.34;-0.43;2.10;0.98;6.51
9145;-5.86;1.08;7.93;-0.12;0.34;-0.43;11.06;-2.94;10.78
9154;-5.83;0.95;7.87;-0.12;0.34;-0.43;19.53;-5.32;13.37
9163;-5.83;0.77;8.01;-0.12;0.33;-0.45;23.80;-5.81;14.70
9172;-6.15;0.80;8.03;-0.12;0.33;-0.45;21.49;-3.71;15.61
9181;-6.34;0.57;8.06;-0.12;0.33;-0.45;15.33;-2.38;16.66
9190;-6.37;0.33;8.04;-0.13;0.35;-0.46;8.12;0.91;15.75
9199;-6.30;0.34;8.18;-0.13;0.35;-0.46;1.61;4.20;15.54
9207;-6.32;0.29;8.22;-0.13;0.35;-0.46;-1.26;7.70;17.43
9216;-6.26;0.29;8.13;-0.14;0.35;-0.44;-2.03;11.20;19.88
9225;-6.35;0.27;8.18;-0.14;0.35;-0.44;-2.87;13.30;23.45
9234;-6.56;0.79;8.05;-0.14;0.35;-0.44;1.82;14.28;29.12
9243;-6.65;0.85;8.00;-0.14;0.35;-0.44;10.50;14.56;36.68
9251;-6.74;0.94;7.98;-0.14;0.35;-0.44;18.69;11.97;38.22
9260;-6.46;1.14;7.71;-0.14;0.35;-0.44;27.09;7.56;38.15
9269;-6.22;1.23;7.69;-0.13;0.35;-0.46;29.12;6.93;39.20
9278;-6.17;1.44;7.59;-0.13;0.35;-0.46;28.35;7.42;36.61
9287;-6.14;1.77;7.44;-0.13;0.35;-0.46;22.75;9.80;31.64
9295;-6.15;1.93;7.70;-0.13;0.35;-0.46;12.81;13.16;26.11
9304;-5.98;1.96;7.76;-0.13;0.35;-0.46;3.08;17.64;21.42
9313;-6.00;1.64;7.75;-0.13;0.35;-0.46;-4.41;23.52;16.73
9322;-6.04;1.36;7.63;-0.13;0.36;-0.47;-8.33;26.60;16.03
9331;-6.17;1.21;7.67;-0.13;0.36;-0.47;-6.51;26.95;15.89
9339;-6.10;0.87;7.68;-0.12;0.36;-0.45;-0.56;24.08;19.04
9348;-6.22;0.58;7.69;-0.12;0.36;-0.45;6.72;21.56;19.46
9357;-6.13;0.50;7.58;-0.12;0.36;-0.45;14.91;18.97;19.32
9366;-5.90;0.75;7.40;-0.11;0.36;-0.46;15.68;19.25;23.66
9375;-5.97;0.60;7.39;-0.11;0.36;-0.46;13.23;21.77;26.25
9383;-6.08;0.78;7.44;-0.11;0.36;-0.46;2.52;22.40;26.32
9392;-5.90;0.86;7.46;-0.11;0.36;-0.46;-4.48;23.45;25.34
9401;-5.74;0.97;7.64;-0.11;0.36;-0.46;-11.55;25.27;25.48
9410;-5.41;1.15;7.81;-0.11;0.36;-0.46;-16.87;27.44;25.27
9418;-5.37;1.18;7.77;-0.11;0.36;-0.46;-19.46;31.43;22.54
9427;-5.66;1.09;7.84;-0.11;0.36;-0.46;-14.91;31.85;20.44
9436;-5.34;0.55;8.05;-0.11;0.36;-0.46;-7.98;30.87;15.61
9445;-5.53;0.56;8.36;-0.11;0.37;-0.47;-2.66;27.79;15.19
9454;-4.90;0.16;8.13;-0.11;0.37;-0.47;1.40;29.61;17.36
9462;-5.06;0.11;8.01;-0.11;0.37;-0.47;6.58;29.82;22.82
9471;-4.95;0.06;7.77;-0.11;0.36;-0.46;10.29;29.68;26.67
9480;-4.94;0.03;7.44;-0.11;0.36;-0.46;13.30;27.09;28.49
9489;-4.98;0.09;7.28;-0.11;0.36;-0.46;9.38;24.99;28.84
9498;-5.18;-0.04;7.28;-0.10;0.35;-0.46;3.85;23.10;29.19
9506;-5.16;-0.18;7.54;-0.10;0.35;-0.46;-2.52;21.07;31.29
9515;-5.20;-0.21;7.59;-0.10;0.35;-0.46;-6.93;20.37;33.39
9524;-5.41;-0.24;7.82;-0.09;0.37;-0.47;-4.06;17.57;33.39
9533;-5.11;-0.29;7.76;-0.09;0.37;-0.47;3.78;12.95;31.29
9542;-4.77;-0.36;7.82;-0.09;0.37;-0.47;10.92;8.82;29.96
9551;-4.79;-0.40;7.70;-0.09;0.37;-0.47;13.09;7.84;28.49
9559;-4.86;-0.24;7.54;-0.09;0.37;-0.47;9.94;6.30;26.32
9568;-4.91;-0.31;7.47;-0.09;0.37;-0.47;3.01;4.90;25.76
9577;-4.86;-0.39;7.72;-0.09;0.37;-0.47;-5.39;5.25;26.25
9586;-4.87;-0.37;7.95;-0.09;0.37;-0.47;-14.63;6.16;25.62
9594;-4.97;-0.33;8.42;-0.09;0.37;-0.47;-19.60;7.49;23.87
9603;-4.78;-0.36;8.59;-0.09;0.36;-0.47;-19.67;9.80;22.96
9612;-4.83;-0.49;8.79;-0.09;0.36;-0.47;-13.93;11.62;21.98
9621;-4.82;-0.47;8.70;-0.09;0.36;-0.47;-9.31;11.20;21.84
9629;-4.72;-0.53;8.58;-0.08;0.35;-0.46;-4.97;9.80;22.33
9638;-4.74;-0.50;8.46;-0.08;0.35;-0.46;-1.33;8.12;23.03
9647;-4.77;-0.45;8.35;-0.08;0.35;-0.45;1.33;6.09;23.94
9656;-4.82;-0.27;8.43;-0.08;0.36;-0.45;3.43;3.64;23.10
9664;-4.74;-0.34;8.46;-0.08;0.36;-0.45;4.27;0.21;21.91
9673;-4.72;-0.50;8.33;-0.09;0.36;-0.45;2.80;-1.40;21.63
9682;-4.76;-0.50;8.46;-0.09;0.36;-0.45;-0.28;-2.66;22.68
9691;-4.84;-0.61;8.52;-0.09;0.36;-0.45;-4.62;-1.96;23.94
9699;-4.71;-0.60;8.58;-0.08;0.36;-0.47;-6.58;-1.75;24.43
9708;-4.67;-0.52;8.62;-0.08;0.36;-0.47;-7.00;-1.54;23.87
9717;-4.63;-0.36;8.80;-0.08;0.36;-0.47;-6.51;-1.05;20.09
9726;-4.46;-0.42;8.87;-0.09;0.37;-0.47;-7.07;0.84;16.24
9735;-4.44;-0.49;9.23;-0.09;0.37;-0.47;-10.64;4.27;13.02
9744;-4.31;-0.67;9.28;-0.09;0.37;-0.47;-16.17;8.12;12.53
9752;-4.57;-0.55;7.35;-0.09;0.36;-0.46;-21.98;11.06;11.97
9761;-4.62;-0.57;9.02;-0.09;0.36;-0.46;-22.82;11.69;12.04
9770;-4.48;-0.65;9.11;-0.09;0.36;-0.46;-21.21;10.85;13.30
9779;-4.49;-0.75;8.76;-0.08;0.35;-0.47;-15.47;8.89;15.40
9788;-4.48;-0.93;8.76;-0.08;0.35;-0.47;-9.17;6.09;17.71
9796;-4.37;-0.88;8.63;-0.08;0.35;-0.47;-4.62;2.38;20.16
9805;-4.26;-0.80;8.64;-0.08;0.35;-0.46;-1.96;-0.98;20.65
9814;-4.26;-0.71;8.76;-0.08;0.35;-0.46;-1.05;-3.15;21.07
9823;-4.41;-0.67;8.94;-0.08;0.35;-0.46;-2.66;-4.76;20.16
9831;-4.43;-0.57;9.22;-0.09;0.36;-0.46;-4.55;-5.25;18.97
9840;-4.28;-0.55;9.18;-0.09;0.36;-0.46;-7.91;-3.71;17.36
9849;-4.36;-0.57;9.20;-0.09;0.36;-0.46;-10.01;0.56;16.31
9858;-4.49;-0.62;8.94;-0.08;0.35;-0.48;-9.66;3.15;16.31
9866;-4.57;-0.68;8.69;-0.08;0.35;-0.48;-8.47;5.60;17.92
9875;-4.41;-0.87;8.48;-0.08;0.35;-0.48;-5.11;5.81;19.32
9884;-4.31;-1.01;8.18;-0.08;0.35;-0.47;-0.91;3.43;21.35
9893;-4.25;-0.92;7.95;-0.08;0.35;-0.47;1.47;0.77;23.59
9902;-4.11;-0.90;7.95;-0.08;0.35;-0.47;1.33;-1.82;25.76
9910;-4.20;-0.70;7.87;-0.09;0.34;-0.45;1.96;-4.62;25.34
9919;-4.30;-0.49;8.08;-0.09;0.34;-0.45;1.47;-6.51;23.80
9928;-4.35;-0.25;8.15;-0.09;0.34;-0.45;1.05;-7.07;21.07
9937;-4.38;-0.02;8.18;-0.09;0.35;-0.46;0.14;-6.72;17.92
9946;-4.47;-0.01;8.38;-0.09;0.35;-0.46;-1.33;-6.02;14.70
9954;-4.48;-0.03;8.36;-0.09;0.35;-0.46;-1.68;-4.41;11.97
9963;-4.41;-0.04;8.32;-0.10;0.36;-0.47;-0.56;-3.22;12.04
9972;-4.21;-0.21;8.08;-0.10;0.36;-0.47;2.66;-3.15;12.81
9981;-4.24;-0.29;8.15;-0.10;0.35;-0.46;5.11;-3.64;13.37
9989;-4.28;-0.35;8.22;-0.10;0.35;-0.46;3.43;-3.85;14.98
9998;-4.13;-0.04;8.27;-0.10;0.35;-0.46;-0.42;-3.15;16.38
10007;-4.13;0.02;8.55;-0.08;0.35;-0.45;-3.99;-1.82;14.56
10016;-4.15;0.15;8.65;-0.08;0.35;-0.45;-4.76;0.00;12.04
10025;-4.10;0.16;8.43;-0.08;0.35;-0.45;-4.83;2.52;9.52
10033;-4.30;0.06;8.40;-0.09;0.35;-0.46;-3.64;4.20;7.70
10042;-4.39;0.20;8.16;-0.09;0.35;-0.46;-1.75;3.85;7.21
10051;-4.56;0.27;8.06;-0.09;0.35;-0.46;0.49;1.05;7.00
10060;-4.33;0.14;8.08;-0.09;0.34;-0.46;1.05;-1.26;5.74
10069;-4.29;0.04;8.48;-0.09;0.34;-0.46;-2.31;-2.52;4.76
10077;-4.26;0.02;8.79;-0.09;0.34;-0.46;-8.47;-3.29;3.78
10086;-4.16;-0.04;9.00;-0.09;0.35;-0.46;-12.95;-2.03;4.13
10095;-4.22;-0.05;9.06;-0.09;0.35;-0.46;-13.58;-1.61;3.01
10104;-4.15;-0.04;8.87;-0.09;0.35;-0.46;-10.29;-1.47;2.45
10113;-4.31;-0.10;9.10;-0.09;0.35;-0.46;-5.81;-1.19;3.50
10122;-4.19;-0.16;8.99;-0.09;0.35;-0.46;-1.26;-0.84;6.37
10131;-3.99;-0.06;8.69;-0.09;0.35;-0.46;2.66;-0.91;7.91
10139;-4.03;-0.04;8.56;-0.09;0.34;-0.44;4.83;-0.84;7.56
10148;-3.91;-0.06;8.42;-0.09;0.34;-0.44;5.60;-2.31;6.30
10157;-3.90;-0.22;8.30;-0.09;0.34;-0.44;3.71;-3.08;5.25
10166;-3.95;-0.39;8.42;-0.09;0.35;-0.47;-0.98;-3.43;4.13
10174;-3.93;-0.39;8.74;-0.09;0.35;-0.47;-3.22;-3.99;3.43
10183;-4.01;-0.40;8.79;-0.09;0.35;-0.47;-3.29;-3.50;2.24
10192;-3.96;-0.55;8.90;-0.09;0.35;-0.46;-2.38;-3.01;1.47
10201;-3.97;-0.48;9.02;-0.09;0.35;-0.46;-0.07;-1.75;1.12
10210;-3.78;-0.51;8.76;-0.09;0.35;-0.46;3.15;0.70;0.49
10218;-3.87;-0.42;8.56;-0.10;0.35;-0.47;5.53;2.38;0.49
10227;-3.88;-0.57;8.37;-0.10;0.35;-0.47;6.16;3.08;0.91
10236;-3.81;-0.49;8.38;-0.10;0.35;-0.47;5.53;2.45;1.54
10245;-3.85;-0.55;8.50;-0.09;0.36;-0.46;3.92;0.63;2.10
10254;-3.74;-0.67;8.61;-0.09;0.36;-0.46;2.94;-2.03;2.66
10262;-3.86;-0.78;8.86;-0.09;0.36;-0.46;5.53;-2.94;2.80
10271;-3.90;-0.89;8.89;-0.08;0.35;-0.46;8.96;-3.43;3.22
10280;-3.93;-0.91;8.89;-0.08;0.35;-0.46;12.39;-2.87;2.87
10289;-4.07;-0.95;8.79;-0.08;0.35;-0.46;13.23;-1.26;3.64
10297;-3.99;-1.02;8.71;-0.10;0.35;-0.46;11.34;0.35;4.34
10306;-4.11;-0.85;8.65;-0.10;0.35;-0.46;8.54;1.19;4.90
10315;-4.03;-0.86;8.81;-0.08;0.36;-0.46;5.18;1.19;3.43
10324;-4.09;-0.93;9.06;-0.08;0.36;-0.46;3.01;2.10;2.80
10333;-4.12;-1.02;8.98;-0.08;0.36;-0.46;3.15;2.31;2.38
10341;-4.19;-1.10;9.08;-0.10;0.36;-0.46;6.02;2.17;3.01
10350;-4.01;-1.25;8.87;-0.10;0.36;-0.46;7.70;1.96;4.69
10359;-3.86;-1.29;8.88;-0.10;0.36;-0.46;8.82;2.73;7.07
10368;-3.83;-1.23;8.78;-0.09;0.37;-0.46;8.61;2.80;7.91
10376;-1.85;-1.11;8.76;-0.09;0.37;-0.46;5.53;3.29;8.61
10385;-3.65;-0.89;8.71;-0.09;0.37;-0.46;1.82;3.15;7.42
10394;-3.72;-0.90;8.72;-0.09;0.35;-0.46;-0.98;2.31;5.11
10403;-3.80;-0.94;8.79;-0.09;0.35;-0.46;-2.52;1.26;3.57
10412;-3.98;-1.10;8.86;-0.09;0.35;-0.46;-3.92;0.07;0.00
10420;-3.60;-0.78;8.74;-0.09;0.35;-0.47;-3.99;1.40;2.80
10429;-4.01;-0.89;8.95;-0.09;0.35;-0.47;-7.14;3.57;3.01
10438;-3.59;-0.75;8.65;-0.09;0.35;-0.47;-8.12;3.43;2.66
10447;-3.88;-0.74;8.64;-0.09;0.36;-0.47;-9.24;3.08;2.87
10456;-3.93;-0.66;8.61;-0.09;0.36;-0.47;-11.20;2.38;2.52
10465;-3.98;-0.66;8.54;-0.09;0.36;-0.47;-11.97;0.63;2.73
10474;-4.11;-0.62;8.70;-0.09;0.35;-0.46;-10.85;-1.05;3.64
10482;-4.04;-0.48;8.61;-0.09;0.35;-0.46;-10.08;-3.08;3.50
10491;-4.03;-0.44;8.91;-0.09;0.35;-0.46;-9.73;-3.85;2.59
10500;-4.03;-0.37;8.98;-0.09;0.35;-0.46;-8.68;-4.20;2.10
10509;-4.03;-0.32;8.99;-0.09;0.35;-0.46;-6.93;-3.22;2.31
10518;-4.18;-0.34;9.16;-0.09;0.35;-0.46;-5.11;-1.61;2.24
10526;-4.21;-0.24;8.98;-0.09;0.36;-0.47;-3.78;-0.14;1.40
10535;-4.33;-0.19;8.79;-0.09;0.36;-0.47;-2.87;0.42;0.42
10544;-4.49;-0.23;8.61;-0.09;0.36;-0.47;-4.41;0.28;-0.07
10553;-4.27;-0.43;8.54;-0.09;0.35;-0.47;-5.81;0.49;0.00
10562;-4.32;-0.48;8.66;-0.09;0.35;-0.47;-5.95;0.49;0.00
10571;-4.21;-0.59;8.60;-0.09;0.35;-0.47;-4.69;-0.49;0.56
10579;-4.14;-0.63;8.62;-0.09;0.35;-0.47;-1.82;-1.54;1.47
10588;-4.01;-0.55;8.56;-0.09;0.35;-0.47;1.12;-2.03;2.52
10597;-3.95;-0.50;8.70;-0.09;0.35;-0.46;1.61;-1.89;2.24
10606;-3.85;-0.49;8.55;-0.09;0.35;-0.46;0.70;-0.63;0.91
10615;-3.80;-0.58;8.52;-0.09;0.35;-0.46;-2.10;17.78;0.00
10623;-3.93;-0.48;8.51;-0.08;0.35;-0.46;-3.92;0.98;-0.91
10632;-4.08;-0.47;8.42;-0.08;0.35;-0.46;-4.41;-0.84;-2.24
10641;-4.05;-0.54;8.30;-0.08;0.35;-0.46;-3.50;-2.87;-2.45
10650;-4.11;-0.47;8.56;-0.09;0.34;-0.46;-2.66;-3.71;-1.54
10658;-4.05;-0.60;8.67;-0.09;0.34;-0.46;-2.38;-5.46;-1.05
10667;-3.78;-0.62;8.84;-0.09;0.34;-0.46;-2.10;-6.44;-0.35
10676;-3.62;-0.81;8.98;-0.09;0.35;-0.48;-2.31;-6.93;0.14
10685;-3.57;-0.83;9.22;-0.09;0.35;-0.48;-1.89;-7.35;0.28
10693;-3.17;-0.92;9.33;-0.09;0.35;-0.48;-0.63;-7.91;0.00
10702;-3.10;-0.99;9.42;-0.09;0.35;-0.47;1.75;-7.07;-0.98
10711;-3.16;-1.20;9.47;-0.09;0.35;-0.47;4.06;-5.25;-1.61
10720;-2.89;-1.34;9.50;-0.09;0.35;-0.47;5.53;-3.78;-1.89
10729;-2.71;-1.49;9.33;-0.09;0.34;-0.46;4.62;-1.61;-1.89
10738;-2.57;-1.60;9.39;-0.09;0.34;-0.46;5.32;-0.56;-1.33
10747;-2.32;-1.67;9.50;-0.09;0.34;-0.46;5.60;-1.12;-1.19
10755;-2.99;-1.77;9.63;-0.10;0.35;-0.46;5.39;-6.58;-5.60
10764;-1.16;-2.15;9.47;-0.10;0.35;-0.46;5.81;-9.80;-7.14
10773;-1.46;-2.29;9.78;-0.10;0.35;-0.46;4.83;-4.48;-4.97
10782;-1.51;-2.43;9.80;-0.09;0.36;-0.47;-0.49;-5.25;-6.79
10791;-0.93;-2.41;9.89;-0.09;0.36;-0.47;-3.36;-6.37;-7.98
10799;-0.92;-2.60;10.04;-0.09;0.36;-0.47;-4.76;-6.72;-9.66
10808;-1.20;-2.18;10.40;-0.10;0.36;-0.46;-4.62;-4.69;-12.18
10817;-1.79;-2.11;10.39;-0.10;0.36;-0.46;-8.89;-0.49;-15.19
10826;-1.61;-2.00;10.15;-0.10;0.36;-0.46;-18.27;5.74;-16.87
10835;-2.16;-1.35;9.83;-0.10;0.35;-0.46;-30.24;34.79;-17.64
10844;-2.03;-1.35;9.87;-0.10;0.35;-0.46;-44.52;23.59;-22.05
10852;-1.87;-0.97;9.70;-0.10;0.35;-0.46;-53.34;29.82;-26.53
10861;-2.16;-0.71;9.66;-0.10;0.34;-0.46;-63.00;34.09;-31.43
10870;-2.12;-0.46;9.60;-0.10;0.34;-0.46;-71.68;36.75;-38.29
10879;-2.10;-0.16;9.66;-0.10;0.34;-0.46;-80.29;38.36;-43.75
10887;-2.29;0.01;9.50;-0.09;0.32;-0.46;-88.69;41.86;-48.16
10896;-2.23;0.32;9.64;-0.09;0.32;-0.46;-94.92;40.88;-55.51
10905;-1.92;0.82;9.79;-0.08;0.30;-0.45;-99.05;39.41;-59.57
10914;-1.67;1.31;10.21;-0.08;0.30;-0.45;-98.56;32.76;-62.51
10923;-0.86;1.88;10.33;-0.08;0.30;-0.45;-88.20;23.59;-64.12
10931;-0.38;2.33;10.76;-0.07;0.29;-0.45;-69.30;13.44;-65.03
10940;0.25;2.76;10.93;-0.07;0.29;-0.45;-35.98;-1.68;-66.50
10949;0.81;6.37;9.88;-0.07;0.29;-0.45;-13.72;-42.28;-61.81
10958;3.09;5.18;10.66;-0.07;0.29;-0.45;45.78;-33.46;-51.80
10967;3.80;7.87;10.95;-0.07;0.29;-0.45;79.10;-24.78;-55.72
10975;4.58;9.88;10.09;-0.07;0.29;-0.45;85.89;4.13;-60.41
10984;3.31;12.35;7.62;-0.06;0.30;-0.46;88.27;30.24;-55.44
10993;1.08;15.02;4.57;-0.06;0.30;-0.46;119.91;34.72;-66.08
11002;-1.23;16.07;1.60;-0.06;0.30;-0.46;160.86;0.42;-105.56
11010;-5.63;17.32;-3.41;-0.05;0.32;-0.47;194.88;-19.18;-152.67
11019;-10.93;16.53;-7.91;-0.05;0.32;-0.47;200.27;-55.44;-231.63
11028;-17.19;14.07;-11.79;-0.05;0.32;-0.47;137.13;-140.98;-350.42
11037;-24.65;7.87;-12.07;-0.06;0.35;-0.45;-17.78;-197.82;-434.70
11046;-33.63;-3.99;-6.50;-0.06;0.35;-0.45;-204.47;-263.34;-465.64
11055;-41.85;-24.69;3.65;-0.06;0.35;-0.45;-370.79;-260.82;-451.15
11064;-45.60;-44.61;25.92;-0.09;0.31;-0.45;-585.34;-150.57;-353.22
11072;-24.67;-43.56;29.68;-0.09;0.31;-0.45;-713.23;-41.09;-35.35
11081;-10.74;-26.46;25.56;-0.09;0.31;-0.45;-302.05;104.93;282.80
11090;-13.82;-0.83;18.31;-0.09;0.21;-0.41;204.12;124.18;410.55
11099;-14.72;29.14;11.99;-0.09;0.21;-0.41;580.44;58.45;393.33
11108;-11.23;34.74;9.66;-0.09;0.21;-0.41;718.34;-18.48;327.04
11116;-4.15;37.25;6.07;-0.11;0.31;-0.45;444.57;-45.15;177.73
11125;4.99;36.14;1.11;-0.11;0.31;-0.45;0.28;41.30;7.49
11134;3.29;23.65;-1.08;-0.11;0.31;-0.45;-259.07;86.24;-122.71
11143;-1.93;12.57;-1.93;-0.12;0.34;-0.45;-282.73;34.51;-189.28
11152;-5.61;5.37;1.90;-0.12;0.34;-0.45;-170.73;-12.25;-190.26
11161;-9.79;-2.13;8.34;-0.12;0.34;-0.45;-90.30;-47.32;-111.72
11170;-10.17;-4.77;12.99;-0.10;0.30;-0.44;-42.42;-37.66;-40.88
11178;-8.29;-3.35;14.34;-0.10;0.30;-0.44;9.03;-14.91;6.93
11187;-6.60;0.16;11.88;-0.10;0.29;-0.44;44.66;14.14;31.36
11196;-5.05;2.76;9.09;-0.10;0.29;-0.44;66.43;53.34;50.19
11205;-4.29;4.74;7.18;-0.10;0.29;-0.44;64.96;37.45;46.69
11214;-4.07;5.90;6.27;-0.11;0.30;-0.45;43.75;26.95;31.29
11222;-3.40;6.08;6.37;-0.11;0.30;-0.45;17.22;13.30;10.85
11231;-3.20;4.67;6.77;-0.11;0.30;-0.45;-5.04;0.07;-7.84
11240;-3.53;2.68;7.85;-0.10;0.30;-0.44;-18.20;-7.70;-19.11
11249;-3.95;0.74;8.94;-0.10;0.30;-0.44;-17.99;-12.67;-20.09
11257;-3.98;-0.75;9.84;-0.10;0.30;-0.44;-12.67;-10.22;-11.13
11266;-4.16;-1.41;9.91;-0.11;0.30;-0.45;-7.35;-0.84;-0.91
11275;-4.34;-1.15;9.50;-0.11;0.30;-0.45;-2.10;8.89;10.01
11284;-4.53;-0.29;8.53;-0.11;0.30;-0.45;1.19;16.24;18.97
11293;-4.63;0.74;7.82;-0.10;0.31;-0.45;3.64;19.46;25.13
11301;-4.77;2.04;7.07;-0.10;0.31;-0.45;9.59;15.26;24.57
11310;-4.68;2.58;6.58;-0.10;0.31;-0.45;12.74;7.63;17.43
11319;-4.76;2.38;6.54;-0.10;0.31;-0.45;10.92;0.35;8.61
11328;-5.08;1.77;7.15;-0.10;0.31;-0.45;5.04;-4.62;1.68
11337;-5.36;1.36;7.72;-0.10;0.31;-0.45;-0.56;-6.30;-1.89
11345;-5.50;0.96;8.25;-0.10;0.31;-0.45;-2.94;-5.46;-3.43
11354;-5.84;0.66;8.56;-0.10;0.31;-0.45;-0.14;-2.59;-4.13
11363;-5.88;0.50;8.71;-0.10;0.31;-0.45;3.50;3.29;0.07
11372;-5.76;0.51;8.34;-0.10;0.31;-0.46;9.24;8.75;5.11
11380;-5.76;0.80;7.54;-0.10;0.31;-0.46;15.05;12.32;9.03
11389;-5.39;0.98;7.03;-0.10;0.31;-0.46;18.62;13.86;12.11
11398;-5.23;1.11;6.45;-0.10;0.31;-0.45;20.79;11.27;12.74
11407;-5.23;0.93;6.00;-0.10;0.31;-0.45;19.81;6.09;11.97
11416;-5.20;1.12;6.17;-0.10;0.31;-0.45;14.21;-0.35;11.55
11424;-5.10;1.36;6.50;-0.10;0.31;-0.45;7.21;-5.32;8.89
11433;-5.13;1.46;7.17;-0.10;0.31;-0.45;0.14;-7.91;4.48
11442;-5.03;1.36;7.71;-0.10;0.31;-0.45;-7.14;-8.61;-0.49
11451;-5.04;1.19;8.06;-0.10;0.32;-0.46;-10.64;-7.28;-2.24
11460;-5.00;1.25;8.23;-0.10;0.32;-0.46;-9.24;-5.39;-0.35
11469;-5.14;1.23;8.36;-0.10;0.32;-0.46;-3.22;-4.76;1.89
11477;-5.18;1.35;8.46;-0.10;0.32;-0.44;3.08;-4.48;4.90
11486;-5.21;1.39;8.56;-0.10;0.32;-0.44;7.70;-4.34;6.93
11495;-5.23;1.60;8.64;-0.10;0.32;-0.46;8.33;-3.01;6.09
11504;-5.41;1.56;8.64;-0.10;0.32;-0.46;4.48;-2.03;4.48
11513;-5.36;1.46;8.53;-0.10;0.32;-0.46;-1.12;-1.61;3.85
11522;-5.46;1.46;8.56;-0.10;0.32;-0.45;-4.69;-1.19;2.66
11530;-5.27;1.54;8.57;-0.10;0.32;-0.45;-5.95;-0.77;2.45
11539;-5.18;1.67;8.43;-0.10;0.32;-0.45;-2.87;-0.98;4.06
11548;-5.10;1.62;8.50;-0.11;0.32;-0.45;1.47;-1.12;4.83
11557;-4.87;1.93;8.22;-0.11;0.32;-0.45;5.18;-0.77;6.65
11566;-4.89;1.92;7.93;-0.11;0.32;-0.45;8.19;-0.77;6.72
11574;-4.93;2.13;7.90;-0.10;0.32;-0.44;9.80;-2.03;5.88
11583;-5.08;2.17;7.90;-0.10;0.32;-0.44;7.91;-3.01;3.85
11592;-5.29;2.02;7.95;-0.10;0.32;-0.44;3.01;-3.92;1.12
11601;-5.41;1.71;7.98;-0.10;0.32;-0.45;-3.22;-3.29;-1.82
11610;-5.52;1.56;8.21;-0.10;0.32;-0.45;-8.19;-2.52;-2.80
11618;-5.41;1.33;8.05;-0.10;0.32;-0.45;-5.25;-2.38;-1.61
11627;-5.43;1.26;8.10;-0.11;0.32;-0.45;-0.49;-3.08;0.49
11636;-5.41;1.27;8.10;-0.11;0.32;-0.45;1.75;-3.01;2.10
11645;-5.59;1.50;8.15;-0.11;0.32;-0.45;0.70;-2.87;3.08
11654;-5.54;1.61;8.12;-0.10;0.33;-0.45;-1.19;-2.10;3.85
11662;-5.48;1.70;8.05;-0.10;0.33;-0.45;-0.35;-0.84;4.34
11671;-5.39;1.77;7.90;-0.10;0.33;-0.45;2.52;-0.70;5.32
11680;-5.32;1.77;7.94;-0.12;0.31;-0.46;7.42;-1.47;6.86
11689;-5.22;1.89;7.64;-0.12;0.31;-0.46;10.71;-1.47;5.32
11698;-5.09;1.87;7.69;-0.12;0.31;-0.46;9.38;-0.77;3.85
11707;-4.97;1.86;7.67;-0.11;0.32;-0.45;5.11;0.21;2.17
11715;-4.75;1.78;7.53;-0.11;0.32;-0.45;1.26;0.35;-1.40
11724;-5.05;1.59;7.61;-0.11;0.32;-0.45;-3.71;1.12;-2.87
11733;-5.10;1.50;7.74;-0.11;0.33;-0.45;-5.39;0.77;-2.52
11742;-4.94;1.49;7.77;-0.11;0.33;-0.45;-2.38;0.21;-1.96
11751;-5.18;1.59;7.75;-0.11;0.33;-0.45;0.98;-1.54;0.63
11760;-5.20;1.51;7.82;-0.11;0.32;-0.44;3.78;-2.80;2.94
11768;-5.30;1.41;8.09;-0.11;0.32;-0.44;6.86;-3.78;5.32
11777;-5.53;1.40;8.02;-0.11;0.32;-0.45;10.92;-2.94;10.08
11786;-5.69;1.28;7.94;-0.11;0.32;-0.45;13.37;-4.90;10.43
11795;-5.51;1.15;8.14;-0.11;0.32;-0.45;15.54;-5.32;12.81
11803;-5.57;1.23;8.16;-0.10;0.33;-0.45;16.24;-4.55;14.00
11812;-5.66;1.19;8.33;-0.10;0.33;-0.45;14.63;-2.31;13.37
11821;-5.61;1.18;8.32;-0.10;0.33;-0.45;10.43;0.98;12.11
11830;-5.79;1.18;8.38;-0.12;0.34;-0.46;6.37;4.90;12.32
11839;-5.66;1.22;8.41;-0.12;0.34;-0.46;4.20;7.98;11.48
11848;-5.66;1.08;8.35;-0.12;0.34;-0.46;4.13;8.89;10.85
11856;-5.89;0.99;8.18;-0.11;0.33;-0.46;2.45;9.10;10.29
11865;-5.71;0.95;8.10;-0.11;0.33;-0.46;3.57;7.63;11.62
11874;-5.79;0.75;8.18;-0.11;0.33;-0.46;2.94;7.70;11.90
11883;-6.01;0.81;8.12;-0.10;0.34;-0.47;0.35;9.94;13.79
11892;-6.04;0.66;8.10;-0.10;0.34;-0.47;-2.24;11.69;18.20
11900;-6.18;0.70;8.20;-0.10;0.34;-0.47;-3.99;10.64;19.81
11909;-6.03;1.13;8.40;-0.11;0.34;-0.47;17.78;9.17;24.78
11918;-5.92;1.32;8.35;-0.11;0.34;-0.47;7.35;10.08;29.33
11927;-5.86;1.42;8.36;-0.11;0.34;-0.47;14.70;10.08;32.27
11935;-5.91;1.98;8.44;-0.11;0.33;-0.45;21.28;10.57;32.90
11944;-6.17;2.24;8.42;-0.11;0.33;-0.45;23.38;9.10;30.52
11953;-6.22;2.22;8.38;-0.11;0.33;-0.45;23.45;8.47;25.62
11962;-6.26;2.08;8.28;-0.11;0.34;-0.46;17.43;11.76;19.67
11970;-6.26;1.72;8.04;-0.11;0.34;-0.46;8.61;14.77;14.21
11979;-6.11;1.33;7.62;-0.11;0.34;-0.46;-17.85;17.85;10.78
11988;-6.04;1.06;7.37;-0.10;0.35;-0.46;-6.44;19.95;10.36
11997;-5.81;0.81;7.24;-0.10;0.35;-0.46;-9.66;22.96;15.12
12006;-5.94;0.72;7.02;-0.10;0.35;-0.46;-13.44;25.27;20.93
12014;-6.20;0.80;7.14;-0.10;0.34;-0.47;-13.79;22.82;26.39
12023;-6.25;0.85;7.35;-0.10;0.34;-0.47;-12.25;17.29;30.38
12032;-6.20;0.83;7.31;-0.10;0.34;-0.47;-10.57;11.41;34.02
12041;-6.18;0.83;7.62;-0.10;0.35;-0.46;-9.94;9.73;37.80
12050;-5.76;0.95;7.74;-0.10;0.35;-0.46;-6.16;9.17;41.09
12058;-5.68;0.98;7.90;-0.10;0.35;-0.46;3.01;9.24;49.42
12067;-5.30;0.97;7.80;-0.10;0.35;-0.47;12.46;11.34;53.20
12076;-5.32;1.10;8.15;-0.10;0.35;-0.47;20.65;7.98;57.12
12085;-5.04;1.02;8.21;-0.10;0.35;-0.47;24.92;6.37;59.92
12094;-4.95;0.88;8.12;-0.09;0.35;-0.46;27.30;6.51;59.57
12103;-4.82;0.78;8.23;-0.09;0.35;-0.46;26.60;10.15;58.45
12111;-5.08;0.59;8.15;-0.09;0.36;-0.47;19.53;13.51;58.38
12120;-5.22;0.55;8.14;-0.09;0.36;-0.47;10.99;14.49;54.39
12129;-5.21;0.45;8.11;-0.09;0.36;-0.47;4.41;14.98;51.24
12138;-4.98;0.17;8.00;-0.10;0.35;-0.46;1.40;15.75;49.49
12147;-5.05;0.09;7.80;-0.10;0.35;-0.46;-0.07;16.80;47.53
12156;-5.20;0.24;7.84;-0.10;0.35;-0.46;-0.77;18.13;45.36
12165;-5.30;0.22;7.83;-0.09;0.37;-0.47;-2.38;17.15;41.93
12173;-5.20;0.19;7.85;-0.09;0.37;-0.47;-5.11;17.57;38.22
12182;-5.20;0.22;8.07;-0.09;0.37;-0.47;-8.68;19.67;35.91
12191;-5.26;0.24;8.19;-0.09;0.36;-0.46;-11.27;20.72;32.48
12200;-5.00;0.05;8.51;-0.09;0.36;-0.46;-14.21;22.47;29.89
12209;-5.10;-0.05;8.55;-0.09;0.36;-0.46;-16.94;25.20;29.40
12218;-4.97;-0.22;8.59;-0.10;0.35;-0.45;-21.42;26.60;30.10
12226;-5.00;-0.19;8.56;-0.10;0.35;-0.45;-23.94;28.00;30.66
12235;-5.02;-0.17;8.49;-0.10;0.35;-0.45;-23.45;25.76;30.52
12244;-4.88;-0.06;8.24;-0.09;0.36;-0.47;-19.95;22.40;28.98
12253;-4.77;-0.06;8.40;-0.09;0.36;-0.47;-16.10;19.60;27.02
12261;-4.97;-0.03;8.38;-0.09;0.36;-0.47;-14.49;17.85;24.64
12270;-4.95;0.03;8.37;-0.08;0.35;-0.46;-14.49;17.08;22.40
12279;-4.79;0.03;8.46;-0.08;0.35;-0.46;-15.96;16.17;20.79
12288;-4.97;-0.05;8.45;-0.08;0.35;-0.46;-17.36;15.47;18.90
12297;-4.80;-0.14;8.58;-0.08;0.34;-0.47;-18.97;15.47;20.44
12306;-4.62;-0.28;8.51;-0.08;0.34;-0.47;-17.43;15.82;21.42
12315;-4.36;-0.43;8.42;-0.08;0.34;-0.47;-12.95;15.33;22.40
12323;-4.49;-0.45;8.45;-0.08;0.34;-0.46;-9.03;15.05;22.89
12332;-4.59;-0.48;8.38;-0.08;0.34;-0.46;-7.77;14.70;23.45
12341;-4.64;-0.34;8.33;-0.08;0.34;-0.46;-9.10;14.49;23.45
12350;-4.62;-0.25;8.18;-0.08;0.34;-0.47;-12.81;13.58;23.38
12359;-4.63;-0.13;8.20;-0.08;0.34;-0.47;-18.06;11.55;21.56
12367;-4.51;-0.27;8.31;-0.08;0.34;-0.47;-23.17;10.36;21.07
12376;-4.37;-0.26;8.36;-0.08;0.33;-0.47;-25.55;9.38;20.16
12385;-4.32;-0.21;8.51;-0.08;0.33;-0.47;-25.34;10.43;20.16
12394;-4.26;-0.30;8.74;-0.08;0.32;-0.46;-23.31;9.10;19.39
12403;-4.22;-0.05;8.61;-0.08;0.32;-0.46;-22.26;11.69;17.08
12412;-4.19;-0.02;9.11;-0.08;0.32;-0.46;-20.79;13.72;16.10
12420;-4.11;0.01;9.07;-0.07;0.32;-0.46;-19.32;13.30;14.56
12429;-4.15;0.06;9.43;-0.07;0.32;-0.46;-18.90;13.93;14.28
12438;-4.24;0.09;9.55;-0.07;0.32;-0.46;-16.94;14.70;15.19
12447;-4.22;0.19;9.40;-0.07;0.32;-0.46;-11.41;14.21;15.54
12456;-4.24;0.16;9.21;-0.07;0.32;-0.46;-4.90;12.60;16.66
12465;-4.24;0.12;9.26;-0.07;0.32;-0.46;1.40;12.25;18.13
12473;-4.24;0.01;9.05;-0.07;0.32;-0.46;7.00;10.29;19.95
12482;-4.01;-0.04;8.91;-0.07;0.32;-0.46;13.72;8.12;21.56
12491;-3.83;-0.11;8.87;-0.07;0.32;-0.46;18.41;4.48;23.66
12500;-3.68;-0.11;8.55;-0.07;0.32;-0.45;18.97;0.42;25.48
12509;-3.60;0.01;8.43;-0.07;0.32;-0.45;16.59;-2.59;25.83
12517;-3.46;0.17;8.51;-0.07;0.32;-0.45;11.27;-3.99;24.92
12526;-3.31;0.34;8.36;-0.07;0.32;-0.46;5.11;-3.71;22.89
12535;-3.65;0.41;8.58;-0.07;0.32;-0.46;-0.21;-2.17;20.79
12544;-3.63;0.33;8.51;-0.07;0.32;-0.46;-4.76;0.49;19.60
12553;-3.64;0.23;8.60;-0.07;0.33;-0.45;-5.60;3.08;20.37
12561;-3.68;0.22;8.41;-0.07;0.33;-0.45;-3.15;3.29;21.63
12570;-3.83;0.35;8.23;-0.07;0.33;-0.45;1.82;0.84;21.77
12579;-3.55;0.30;8.40;-0.07;0.33;-0.46;4.41;-3.43;21.28
12588;-3.60;0.38;8.39;-0.07;0.33;-0.46;4.97;-7.63;20.02
12597;-3.73;0.42;8.81;-0.07;0.33;-0.46;3.50;-10.36;19.39
12605;-3.49;0.32;8.91;-0.07;0.33;-0.46;1.40;-11.13;19.25
12614;-5.48;0.37;9.15;-0.07;0.33;-0.46;1.96;-9.66;18.76
12623;-3.94;0.35;9.01;-0.07;0.33;-0.46;3.50;-7.49;17.78
12632;-4.01;0.41;8.95;-0.08;0.33;-0.45;6.30;-5.95;16.52
12641;-4.13;0.34;8.70;-0.08;0.33;-0.45;7.49;-4.97;15.12
12650;-4.06;0.30;8.68;-0.08;0.33;-0.45;5.81;-4.76;13.02
12658;-3.85;0.30;8.77;-0.08;0.33;-0.46;-17.64;-4.48;10.78
12667;-3.82;0.35;9.06;-0.08;0.33;-0.46;-7.14;-2.31;9.38
12676;-3.79;0.36;9.10;-0.07;0.33;-0.46;-11.20;-0.14;7.70
12685;-3.83;0.36;9.28;-0.07;0.33;-0.46;-11.34;1.96;6.37
12694;-3.75;0.28;9.24;-0.07;0.33;-0.46;-8.12;3.15;6.44
12702;-3.75;0.33;9.02;-0.07;0.32;-0.45;-1.54;2.03;7.14
12711;-3.70;0.20;8.82;-0.07;0.32;-0.45;7.70;0.00;9.17
12720;-3.68;0.24;8.55;-0.07;0.32;-0.45;17.01;-3.64;10.08
12729;-3.57;0.27;8.29;-0.07;0.34;-0.46;22.40;-5.67;11.34
12738;-3.45;0.25;8.22;-0.07;0.34;-0.46;24.22;-7.77;11.20
12746;-3.27;0.39;8.05;-0.07;0.34;-0.46;22.96;-9.17;8.47
12755;-3.27;0.29;8.23;-0.07;0.33;-0.45;14.91;-9.87;3.99
12764;-3.26;0.27;8.52;-0.07;0.33;-0.45;3.08;-7.77;-1.61
12773;-3.37;0.17;8.92;-0.07;0.33;-0.45;-8.26;-4.62;-6.44
12782;-3.33;0.09;9.20;-0.08;0.33;-0.47;-18.06;-0.70;-10.64
12790;-3.43;0.03;9.28;-0.08;0.33;-0.47;-22.12;1.26;-13.09
12799;-3.33;-0.14;9.38;-0.08;0.33;-0.47;-19.18;1.54;-13.58
12808;-3.29;-0.26;9.40;-0.08;0.32;-0.46;-12.88;1.75;-11.34
12817;-3.34;-0.14;9.04;-0.08;0.32;-0.46;-3.92;0.49;-8.61
12826;-3.27;-0.01;8.84;-0.08;0.32;-0.46;4.97;-2.59;-7.35
12834;-3.17;-0.02;8.81;-0.07;0.32;-0.47;11.06;-5.53;-7.56
12843;-3.01;-0.20;8.55;-0.07;0.32;-0.47;12.39;-8.05;-6.79
12852;-2.94;-0.32;8.50;-0.07;0.32;-0.47;13.79;-8.26;-6.02
12861;-3.00;-0.41;8.47;-0.08;0.32;-0.46;15.82;-9.80;-7.56
12870;-3.04;-0.40;8.51;-0.08;0.32;-0.46;14.07;-10.92;-9.45
12879;-3.22;-0.56;8.61;-0.08;0.32;-0.46;8.82;-11.06;-12.11
12888;-3.27;-0.69;8.66;-0.08;0.33;-0.45;3.57;-10.99;-14.49
12896;-3.30;-0.78;8.92;-0.08;0.33;-0.45;-1.54;-8.68;-15.26
12905;-3.31;-0.83;9.22;-0.08;0.33;-0.45;-4.20;-6.09;-14.00
12914;-3.51;-0.77;9.40;-0.08;0.34;-0.46;-2.17;-4.83;-12.32
12923;-3.53;-0.80;9.40;-0.08;0.34;-0.46;1.82;-3.71;-11.83
12932;-3.60;-0.90;9.47;-0.08;0.34;-0.46;4.13;-1.96;-11.41
12941;-3.51;-1.02;9.61;-0.08;0.33;-0.47;3.85;0.70;-9.24
12949;-3.38;-0.92;9.48;-0.08;0.33;-0.47;2.45;4.62;-6.79
12958;-3.30;-0.88;9.53;-0.07;0.33;-0.47;2.66;7.21;-4.90
12967;-3.17;-0.82;9.40;-0.07;0.33;-0.47;5.81;8.75;-3.71
12976;-3.24;-0.83;9.16;-0.07;0.33;-0.47;8.89;9.52;-2.66
12985;-3.36;-0.80;9.10;-0.07;0.32;-0.46;10.22;9.24;-1.96
12994;-3.45;-0.65;9.10;-0.07;0.32;-0.46;9.94;8.61;-1.47
13002;-3.41;-0.50;9.04;-0.07;0.32;-0.46;7.56;8.54;-1.54
13011;-3.50;-0.62;8.94;-0.07;0.33;-0.47;4.62;8.61;-1.26
13020;-3.56;-0.62;9.15;-0.07;0.33;-0.47;4.34;9.59;-0.21
13029;-3.49;-0.63;8.94;-0.07;0.33;-0.47;5.04;10.78;1.05
13038;-3.55;-0.56;8.73;-0.07;0.33;-0.46;7.42;12.39;1.61
13046;-3.68;-0.50;8.57;-0.07;0.33;-0.46;9.10;10.64;1.47
13055;-3.72;-0.43;8.32;-0.07;0.33;-0.46;8.47;8.40;1.61
13064;-3.80;-0.17;8.25;-0.07;0.34;-0.46;5.25;7.07;1.68
13073;-3.87;-0.08;8.39;-0.07;0.34;-0.46;0.28;5.18;0.35
13082;-3.91;-0.27;8.53;-0.07;0.34;-0.46;-3.29;3.78;-1.40
13091;-3.96;-0.32;8.75;-0.07;0.33;-0.47;-4.76;4.69;-1.68
13099;-4.21;-0.20;8.87;-0.07;0.33;-0.47;-6.09;6.30;-2.31
13108;-4.20;-0.28;8.83;-0.07;0.33;-0.47;-5.81;7.70;-3.01
13117;-4.36;-0.30;8.69;-0.07;0.34;-0.45;-5.39;7.77;-3.01
13126;-4.34;-0.30;8.68;-0.07;0.34;-0.45;-4.13;7.14;-2.03
13135;-4.37;-0.28;8.65;-0.07;0.34;-0.45;-3.15;5.95;-0.70
13143;-4.27;-0.28;8.59;-0.07;0.34;-0.46;-1.82;3.71;0.49
13152;-4.26;-0.22;8.59;-0.07;0.34;-0.46;-0.49;1.61;1.40
13161;-4.23;-0.22;8.67;-0.07;0.34;-0.46;0.49;-0.70;0.98
13170;-4.25;-0.17;8.82;-0.07;0.34;-0.46;0.21;-1.26;0.70
13179;-4.06;-0.27;8.69;-0.07;0.34;-0.46;0.14;-0.70;1.05
13187;-3.93;-0.23;8.80;-0.07;0.34;-0.46;0.42;0.14;1.47
13196;-3.78;-0.32;8.63;-0.07;0.34;-0.46;1.12;1.47;1.82
13205;-3.70;-0.24;8.61;-0.07;0.34;-0.46;1.33;2.03;2.24
13214;-3.54;-0.27;8.52;-0.07;0.34;-0.46;1.54;1.89;2.66
13223;-3.57;-0.32;8.59;-0.07;0.34;-0.47;1.40;1.19;2.87
13231;-3.47;-0.30;8.54;-0.07;0.34;-0.47;1.05;0.07;2.59
13240;-3.32;-0.42;8.46;-0.07;0.32;-0.46;0.56;-1.26;2.31
13249;-3.22;-0.32;8.50;-0.06;0.32;-0.46;-1.33;-2.24;1.89
13258;-3.13;-0.29;8.63;-0.06;0.32;-0.46;-3.71;-2.87;1.19
13267;-3.11;-0.27;8.56;-0.06;0.34;-0.47;-4.41;-4.41;0.63
13276;-3.00;-0.50;8.59;-0.06;0.34;-0.47;-4.06;-4.97;0.14
13285;-3.03;-0.34;8.87;-0.06;0.34;-0.47;-4.55;-5.81;-0.07
13293;-3.09;-0.39;9.15;-0.07;0.33;-0.47;-4.20;-6.86;-0.35
13302;-3.16;-0.29;9.40;-0.07;0.33;-0.47;-4.69;-6.79;-0.21
13311;-3.14;-0.33;9.58;-0.07;0.33;-0.47;-4.76;-5.46;0.42
13320;-3.01;-0.33;9.83;-0.07;0.33;-0.45;-3.71;-4.13;0.77
13329;-2.88;-0.55;9.67;-0.07;0.33;-0.45;-0.35;-2.66;2.17
13337;-2.73;-0.63;9.49;-0.07;0.33;-0.45;2.94;-1.47;4.27
13346;-2.47;-0.83;9.46;-0.07;0.33;-0.46;7.00;-2.45;5.81
13355;-2.53;-0.93;9.21;-0.07;0.33;-0.46;10.57;-5.53;6.37
13364;-2.49;-0.95;9.25;-0.07;0.33;-0.46;13.37;-8.47;6.30
13373;-2.51;-0.97;9.07;-0.07;0.34;-0.46;14.35;-10.50;7.28
13381;-2.87;-1.01;9.11;-0.07;0.34;-0.46;13.23;-10.36;7.49
13390;-2.84;-0.98;8.93;-0.07;0.34;-0.46;10.78;-10.50;6.44
13399;-2.98;-1.05;8.98;-0.08;0.33;-0.47;6.72;-12.18;4.76
13408;-2.35;-1.11;9.14;-0.08;0.33;-0.47;1.40;-12.53;3.29
13416;-2.73;-1.32;9.40;-0.08;0.33;-0.47;-2.17;-9.45;0.91
13425;-2.25;-1.36;9.38;-0.08;0.34;-0.47;-5.04;-9.24;2.59
13434;-2.43;-1.57;9.61;-0.08;0.34;-0.47;-5.32;-7.14;4.62
13443;-2.30;-1.51;9.60;-0.08;0.34;-0.47;-4.48;-8.12;5.11
13452;-2.18;-1.55;9.60;-0.08;0.34;-0.46;-0.49;-6.93;6.79
13461;-2.48;-1.26;9.45;-0.08;0.34;-0.46;3.08;-6.16;7.42
13469;-2.53;-0.97;9.18;-0.08;0.34;-0.46;4.34;-6.79;5.67
13478;-2.37;-0.95;8.96;-0.08;0.35;-0.48;0.63;-7.49;3.29
13487;-2.35;-0.86;8.97;-0.08;0.35;-0.48;-6.93;-6.79;0.56
13496;-2.42;-0.67;9.02;-0.08;0.35;-0.48;-11.69;-6.37;-3.08
13504;-2.53;-0.60;9.00;-0.08;0.34;-0.48;-14.77;-6.86;-6.72
13513;-2.38;-0.61;9.26;-0.08;0.34;-0.48;-17.92;-6.16;-10.15
13522;-2.02;-0.57;9.48;-0.08;0.34;-0.48;-24.08;-3.99;-12.74
13531;-1.88;-0.45;9.75;-0.08;0.34;-0.47;-30.45;0.91;-15.54
13540;-1.65;-0.39;10.01;-0.08;0.34;-0.47;-31.71;5.39;-19.60
13549;-1.72;-0.39;10.15;-0.08;0.33;-0.46;-32.27;9.59;-24.99
13558;-1.52;-0.60;10.31;-0.08;0.33;-0.46;-30.17;12.81;-26.18
13566;-1.54;-0.78;10.20;-0.08;0.33;-0.46;-23.45;19.53;-23.87
13575;-2.02;-0.52;9.88;-0.08;0.33;-0.47;-15.19;22.89;-23.80
13584;-1.83;-0.60;9.27;-0.08;0.33;-0.47;-11.27;24.08;-23.31
13593;-1.75;-0.52;8.79;-0.08;0.33;-0.47;-9.73;22.26;-23.17
13601;-1.90;-0.43;8.52;-0.06;0.32;-0.46;-10.50;18.55;-26.11
13610;-1.67;-0.68;8.80;-0.06;0.32;-0.46;-15.05;13.23;-30.17
13619;-1.59;-0.24;9.10;-0.06;0.32;-0.46;-21.42;11.48;-32.69
13628;-1.70;-0.15;8.99;-0.07;0.32;-0.46;-21.42;10.29;-39.83
13637;-1.44;-0.03;9.27;-0.07;0.32;-0.46;-20.79;8.89;-43.54
13646;-1.47;0.16;9.53;-0.07;0.32;-0.46;-18.97;9.52;-46.27
13655;-0.58;0.07;9.84;-0.07;0.33;-0.46;-13.72;5.60;-48.16
13663;-0.06;0.46;9.81;-0.07;0.33;-0.46;-2.59;-1.05;-51.73
13672;0.80;0.83;9.97;-0.07;0.33;-0.46;7.98;-9.73;-48.51
13681;2.30;1.61;9.95;-0.07;0.33;-0.46;29.75;-18.83;-43.40
13690;3.47;2.76;10.17;-0.07;0.33;-0.46;43.61;-22.26;-43.47
13698;2.12;5.53;10.48;-0.07;0.33;-0.46;40.46;-24.64;-69.93
13707;4.90;6.85;9.80;-0.07;0.32;-0.47;32.20;1.96;-52.64
13716;4.54;9.74;8.29;-0.07;0.32;-0.47;24.08;19.67;-56.28
13725;3.42;12.50;6.45;-0.07;0.32;-0.47;37.87;17.85;-67.48
13733;1.36;16.62;3.88;-0.05;0.33;-0.47;74.83;-3.99;-102.34
13742;-0.21;18.49;1.13;-0.05;0.33;-0.47;129.01;-40.60;-153.44
13751;-3.89;19.07;-2.76;-0.05;0.33;-0.47;173.32;-87.50;-225.26
13760;-12.71;18.73;-8.03;-0.04;0.34;-0.47;153.23;-127.89;-330.19
13769;-22.72;17.06;-11.47;-0.04;0.34;-0.47;73.36;-174.30;-430.92
13778;-31.99;9.95;-12.58;-0.04;0.34;-0.47;-59.43;-245.77;-510.72
13786;-42.28;-6.37;-6.93;-0.09;0.36;-0.48;-248.78;-315.00;-596.89
13795;-53.94;-32.88;9.05;-0.09;0.36;-0.48;-448.42;-266.28;-598.71
13804;-48.65;-52.19;31.89;-0.09;0.36;-0.48;-782.18;-169.61;-443.87
13813;-14.85;-43.96;29.36;-0.11;0.27;-0.44;-702.24;-24.64;-23.59
13822;-7.68;-20.61;30.36;-0.11;0.27;-0.44;-149.66;171.78;422.80
13831;-16.70;3.99;18.90;-0.11;0.22;-0.41;375.62;148.26;500.85
13840;-16.76;30.54;11.52;-0.11;0.22;-0.41;767.97;66.08;427.14
13848;-11.36;36.39;6.73;-0.11;0.22;-0.41;913.36;-62.30;344.40
13857;-4.18;37.95;3.07;-0.14;0.39;-0.44;509.11;-8.61;167.58
13866;6.97;32.37;-2.30;-0.14;0.39;-0.44;-13.86;55.86;-19.11
13875;3.17;20.46;-4.60;-0.14;0.39;-0.44;-324.52;122.92;-156.80
13884;-1.03;9.96;-3.40;-0.13;0.34;-0.46;-407.05;74.76;-205.10
13893;-4.53;4.47;0.74;-0.13;0.34;-0.46;-268.94;17.22;-164.64
13902;-10.32;-1.34;7.45;-0.13;0.34;-0.46;-92.75;-51.66;-74.13
13910;-10.07;-3.69;12.76;-0.12;0.31;-0.45;32.48;-68.67;-2.10
13919;-7.87;-2.33;15.13;-0.12;0.31;-0.45;68.18;-41.16;35.35
13928;-6.35;1.18;12.41;-0.12;0.31;-0.45;57.68;0.56;59.08
13937;-5.97;4.17;9.26;-0.13;0.32;-0.45;48.86;36.26;64.68
13945;-5.60;5.81;7.14;-0.13;0.32;-0.45;34.79;36.33;46.69
13954;-5.37;6.16;6.29;-0.13;0.32;-0.45;7.49;23.31;21.91
13963;-4.76;5.09;6.65;-0.12;0.32;-0.44;-24.99;10.43;0.21
13972;-4.37;3.77;7.59;-0.12;0.32;-0.44;-39.69;-0.14;-8.47
13981;-4.36;2.65;8.68;-0.12;0.32;-0.44;-28.91;-8.47;-9.24
13990;-4.73;1.26;9.91;-0.13;0.32;-0.44;-11.69;-17.22;-1.75
13998;-4.67;0.50;10.70;-0.13;0.32;-0.44;5.88;-19.88;4.55
14007;-4.36;-0.07;10.81;-0.13;0.32;-0.44;16.87;-13.09;5.32
14016;-4.72;-0.37;10.44;-0.12;0.33;-0.45;6.58;-1.68;8.68
14025;-5.24;-0.47;9.71;-0.12;0.33;-0.45;-6.09;6.51;10.01
14034;-5.26;-0.07;8.97;-0.12;0.33;-0.45;-11.62;9.17;10.22
14042;-5.24;0.35;8.40;-0.12;0.33;-0.45;-10.36;8.47;10.64
14051;-5.36;0.77;8.21;-0.12;0.33;-0.45;-7.42;4.06;12.53
14060;-5.53;1.37;8.30;-0.12;0.33;-0.45;-3.29;-2.66;11.41
14069;-5.75;1.52;8.52;-0.12;0.33;-0.46;-1.89;-6.51;7.28
14078;-5.75;1.51;8.87;-0.12;0.33;-0.46;-5.46;-6.79;3.92
14086;-5.94;1.28;8.99;-0.12;0.33;-0.46;-8.75;-5.32;2.80
14095;-5.98;1.25;8.97;-0.12;0.32;-0.44;-8.96;0.21;6.02
14104;-6.21;1.41;8.82;-0.12;0.32;-0.44;-4.48;5.95;7.35
14113;-5.84;1.72;8.31;-0.12;0.32;-0.45;4.41;11.90;7.63
14122;-6.14;1.81;7.44;-0.13;0.33;-0.45;8.82;15.40;6.93
14130;-6.02;1.63;6.81;-0.13;0.33;-0.45;11.69;13.72;6.58
14139;-6.07;1.25;6.35;-0.12;0.33;-0.44;12.11;11.06;7.14
14148;-5.77;1.06;6.18;-0.12;0.33;-0.44;9.87;7.42;7.56
14157;-5.64;1.23;6.27;-0.12;0.33;-0.44;8.61;5.32;9.03
14166;-5.76;1.42;6.47;-0.12;0.32;-0.44;4.76;2.31;7.07
14175;-5.56;1.64;6.92;-0.12;0.32;-0.44;1.33;0.21;6.37
14183;-5.57;1.80;7.24;-0.12;0.32;-0.44;1.19;-0.21;6.23
14192;-5.37;1.87;7.39;-0.12;0.33;-0.45;4.69;0.77;7.77
14201;-5.43;1.92;7.26;-0.12;0.33;-0.45;10.22;1.82;7.63
14210;-5.53;1.76;7.11;-0.12;0.33;-0.45;13.30;1.26;6.16
14219;-5.61;1.25;7.14;-0.11;0.33;-0.46;12.18;-0.98;3.78
14228;-5.61;0.73;7.47;-0.11;0.33;-0.46;8.33;-3.50;1.54
14236;-5.83;0.57;7.67;-0.11;0.33;-0.46;2.03;-3.64;0.07
14245;-5.71;0.47;8.11;-0.12;0.33;-0.44;-3.22;-3.08;0.35
14254;-5.66;0.52;8.47;-0.12;0.33;-0.44;-3.43;-3.50;1.54
14263;-5.56;0.73;8.64;-0.12;0.33;-0.44;0.14;-3.71;4.55
14272;-5.42;1.05;8.68;-0.10;0.33;-0.44;5.74;-3.36;7.56
14280;-5.35;1.25;8.51;-0.10;0.33;-0.44;12.74;-3.43;9.66
14289;-5.03;1.36;8.20;-0.10;0.33;-0.44;15.96;-3.01;10.64
14298;-5.05;1.54;7.85;-0.13;0.34;-0.45;15.33;-2.17;9.87
14307;-5.05;1.59;7.70;-0.13;0.34;-0.45;10.92;-2.52;8.33
14316;-5.30;1.69;7.80;-0.13;0.34;-0.45;4.41;-2.59;5.67
14324;-5.33;1.75;7.89;-0.12;0.34;-0.44;-1.54;-1.68;2.24
14333;-5.49;1.67;8.08;-0.12;0.34;-0.44;-7.21;-0.28;-0.63
14342;-5.79;1.47;8.26;-0.12;0.34;-0.44;-9.87;0.56;-1.33
14351;-5.77;1.41;8.31;-0.13;0.33;-0.45;-7.91;0.07;-0.49
14360;-5.74;1.33;8.37;-0.13;0.33;-0.45;-2.03;0.07;3.22
14368;-5.68;1.61;8.18;-0.13;0.33;-0.45;7.49;0.49;7.28
14377;-5.64;1.79;8.03;-0.12;0.33;-0.45;11.97;1.12;7.98
14386;-5.79;1.70;7.71;-0.12;0.33;-0.45;11.34;1.33;7.14
14395;-6.21;1.70;7.61;-0.12;0.33;-0.45;10.50;0.14;5.60
14403;-6.02;1.48;7.54;-0.12;0.33;-0.45;7.77;-0.56;5.46
14412;-5.87;1.44;7.52;-0.12;0.33;-0.45;6.37;0.28;6.37
14421;-6.13;1.43;7.61;-0.12;0.33;-0.46;5.60;-0.49;6.02
14430;-5.75;1.26;7.51;-0.12;0.34;-0.46;5.88;-1.54;6.23
14439;-5.92;1.26;7.65;-0.12;0.34;-0.46;4.06;-1.05;7.70
14447;-5.77;1.09;7.80;-0.13;0.33;-0.44;4.55;-0.56;9.45
14456;-6.14;1.30;8.12;-0.13;0.33;-0.44;6.58;0.14;11.83
14465;-5.96;1.03;8.07;-0.13;0.33;-0.44;7.77;3.50;12.88
14474;-6.12;1.04;8.28;-0.12;0.33;-0.46;8.47;5.11;15.12
14483;-6.54;0.73;8.32;-0.12;0.33;-0.46;6.51;6.23;16.59
14492;-6.78;0.46;8.34;-0.12;0.33;-0.46;7.07;6.02;16.73
14500;-6.50;0.27;8.26;-0.12;0.35;-0.46;7.70;3.99;18.06
14509;-6.22;0.11;8.29;-0.12;0.35;-0.46;7.49;5.67;20.65
14518;-6.32;0.26;8.20;-0.12;0.35;-0.46;6.58;8.68;25.48
14527;-6.31;0.27;8.27;-0.12;0.35;-0.44;4.90;11.20;28.84
14536;-6.48;0.53;8.35;-0.12;0.35;-0.44;4.20;12.95;32.34
14544;-6.59;0.80;8.26;-0.12;0.35;-0.44;4.06;14.28;33.67
14553;-6.50;1.18;8.02;-0.12;0.34;-0.45;6.30;13.93;35.98
14562;-6.45;1.31;8.03;-0.12;0.34;-0.45;9.17;12.53;35.49
14571;-6.32;1.50;7.94;-0.12;0.34;-0.45;9.87;10.92;34.79
14580;-6.07;1.73;7.84;-0.12;0.36;-0.46;10.78;9.66;34.30
14588;-5.97;1.87;7.61;-0.12;0.36;-0.46;9.94;8.12;30.73
14597;-5.76;1.83;7.43;-0.12;0.36;-0.46;4.62;10.36;26.39
14606;-5.86;1.86;7.38;-0.13;0.35;-0.44;-4.20;14.91;21.49
14615;-5.89;1.92;7.29;-0.13;0.35;-0.44;-13.16;19.60;17.64
14623;-5.78;1.91;7.10;-0.13;0.35;-0.44;-22.61;23.59;14.21
14632;-6.10;1.74;7.08;-0.12;0.36;-0.45;-29.47;25.55;11.76
14641;-6.05;1.57;7.20;-0.12;0.36;-0.45;-32.55;24.29;10.85
14650;-6.11;1.39;7.39;-0.12;0.36;-0.45;-30.52;22.61;14.42
14659;-6.25;1.21;7.58;-0.11;0.35;-0.46;-20.51;20.16;17.29
14668;-6.45;1.06;7.95;-0.11;0.35;-0.46;-7.70;16.66;23.38
14676;-6.53;0.83;8.46;-0.11;0.35;-0.46;5.95;10.43;30.80
14685;-6.57;0.70;8.39;-0.12;0.35;-0.47;27.30;6.44;41.30
14694;-6.29;0.78;8.31;-0.12;0.35;-0.47;38.99;5.11;53.13
14703;-6.14;0.83;8.06;-0.12;0.35;-0.47;46.48;6.02;61.95
14712;-6.03;0.80;7.91;-0.12;0.37;-0.45;51.17;6.65;64.68
14720;-5.84;0.84;7.52;-0.12;0.37;-0.45;51.03;6.72;64.19
14729;-5.71;0.95;7.29;-0.12;0.37;-0.46;44.80;8.26;60.48
14738;-5.64;1.05;7.26;-0.11;0.37;-0.46;34.72;10.92;52.78
14747;-5.81;1.00;7.32;-0.11;0.37;-0.46;18.97;13.79;44.17
14756;-5.89;0.83;7.38;-0.11;0.38;-0.46;4.97;16.94;36.54
14764;-5.89;0.58;7.37;-0.11;0.38;-0.46;-8.05;20.16;30.10
14773;-5.88;0.27;7.56;-0.11;0.38;-0.46;-35.63;25.69;25.55
14782;-5.94;-0.01;7.75;-0.11;0.38;-0.47;-23.80;29.96;24.36
14791;-5.99;-0.06;7.80;-0.11;0.38;-0.47;-27.58;32.41;26.67
14800;-5.89;-0.32;7.82;-0.11;0.38;-0.47;-26.81;32.76;31.36
14809;-5.79;-0.27;8.00;-0.10;0.38;-0.47;-18.97;31.71;36.33
14818;-5.77;-0.27;7.96;-0.10;0.38;-0.47;-11.34;28.77;40.67
14826;-5.64;-0.15;7.94;-0.10;0.38;-0.47;-1.61;21.35;42.63
14835;-5.41;-0.17;8.01;-0.09;0.37;-0.45;7.56;17.57;44.10
14844;-5.26;-0.17;7.95;-0.09;0.37;-0.45;11.90;12.60;45.22
14853;-5.06;-0.19;8.11;-0.09;0.37;-0.45;8.89;11.20;42.56
14862;-4.82;-0.21;8.22;-0.10;0.38;-0.47;2.24;13.02;37.94
14871;-4.73;-0.35;8.18;-0.10;0.38;-0.47;-5.11;15.47;32.55
14879;-4.67;-0.47;8.31;-0.10;0.38;-0.47;-13.16;18.62;29.12
14888;-4.67;-0.67;8.08;-0.10;0.38;-0.47;-22.96;21.56;27.65
14897;-4.69;-0.59;8.16;-0.10;0.38;-0.47;-28.07;24.99;27.44
14906;-4.65;-0.88;8.29;-0.10;0.38;-0.47;-28.63;24.36;27.72
14915;-4.76;-0.75;8.21;-0.09;0.36;-0.47;-25.83;22.40;31.01
14923;-4.42;-0.89;7.98;-0.09;0.36;-0.47;-19.25;19.60;32.83
14932;-4.34;-0.66;8.13;-0.09;0.36;-0.47;-12.67;14.84;35.07
14941;-4.43;-0.55;8.07;-0.10;0.37;-0.46;-7.21;8.68;37.24
14950;-4.35;-0.35;8.03;-0.10;0.37;-0.46;-2.87;3.85;38.57
14959;-4.11;-0.29;8.20;-0.10;0.37;-0.46;-3.29;0.63;39.13
14967;-4.18;-0.10;8.35;-0.09;0.36;-0.45;-7.14;-0.21;37.66
14976;-4.27;-0.06;8.44;-0.09;0.36;-0.45;-11.83;-1.54;33.95
14985;-4.14;-0.15;8.73;-0.09;0.36;-0.45;-16.24;-0.42;29.75
14994;-4.13;-0.11;8.87;-0.09;0.36;-0.46;-20.30;2.38;25.90
15003;-4.15;-0.18;8.97;-0.09;0.36;-0.46;-23.03;5.46;24.78
complete
