Time(ms);AccX(m/s^2);AccY(m/s^2);AccZ(m/s^2);MagX(gauss);MagY(gauss);MagZ(gauss);GyroX(dps);GyroY(dps);GyroZ(dps)
33;-2.53;0.45;9.11;0.02;0.24;-0.45;-4.81;-5.49;1.80
42;-2.55;0.45;9.08;0.02;0.24;-0.45;-4.77;-4.41;1.94
51;-2.51;0.45;9.12;0.02;0.24;-0.45;-4.23;-3.88;2.30
60;-2.51;0.44;8.97;0.02;0.24;-0.43;-3.25;-4.21;2.86
68;-2.55;0.51;8.99;0.02;0.24;-0.43;-2.13;-4.64;2.82
77;-2.51;0.56;8.86;0.02;0.24;-0.43;-2.07;-4.96;2.97
86;-2.55;0.50;8.85;0.02;0.25;-0.44;-2.27;-5.20;2.90
95;-2.54;0.54;8.85;0.02;0.25;-0.44;-2.84;-4.93;2.52
104;-2.60;0.53;8.98;0.02;0.25;-0.44;-3.30;-4.20;2.47
112;-2.66;0.55;8.95;0.03;0.24;-0.44;-3.88;-4.02;2.34
121;-2.64;0.58;9.01;0.03;0.24;-0.44;-4.00;-3.75;2.00
130;-2.62;0.62;8.95;0.03;0.24;-0.44;-3.90;-3.56;1.98
139;-2.68;0.59;9.13;0.02;0.24;-0.44;-4.05;-3.56;2.13
148;-2.62;0.62;9.09;0.02;0.24;-0.44;-3.79;-3.32;2.47
156;-2.68;0.65;9.16;0.02;0.25;-0.44;-3.13;-2.45;2.23
165;-2.63;0.68;9.08;0.02;0.25;-0.44;-2.35;-2.20;2.16
174;-2.63;0.68;9.06;0.02;0.25;-0.44;-1.93;-1.90;2.22
183;-2.58;0.73;9.06;0.02;0.24;-0.44;-1.86;-1.72;2.21
191;-2.50;0.77;9.22;0.02;0.24;-0.44;-1.46;-0.88;2.00
200;-2.60;0.78;9.18;0.02;0.24;-0.44;-0.94;-0.57;1.50
209;-2.61;0.77;9.15;0.02;0.25;-0.43;-0.34;-0.07;1.37
218;-2.64;0.78;9.18;0.02;0.25;-0.43;0.34;0.37;1.30
227;-2.68;0.78;9.04;0.02;0.25;-0.43;1.26;0.30;1.49
235;-2.67;0.78;9.20;0.02;0.25;-0.44;1.78;0.00;1.24
244;-2.68;0.78;9.18;0.02;0.25;-0.44;1.88;-0.58;0.90
253;-2.67;0.69;9.20;0.02;0.25;-0.44;1.62;-0.91;0.85
262;-2.73;0.68;9.24;0.02;0.25;-0.46;2.00;-1.47;0.73
270;-2.70;0.66;9.25;0.02;0.25;-0.46;2.83;-2.55;0.86
279;-2.70;0.59;9.33;0.02;0.25;-0.46;4.51;-3.46;0.88
288;-2.56;0.50;9.36;0.01;0.25;-0.45;5.22;-4.17;1.29
297;-2.50;0.46;9.30;0.01;0.25;-0.45;5.84;-4.30;1.51
305;-2.41;0.35;9.35;0.01;0.25;-0.45;6.18;-4.59;1.54
314;-2.41;0.21;9.45;0.01;0.24;-0.45;5.38;-4.61;1.18
323;-2.32;0.13;9.42;0.01;0.24;-0.45;4.62;-4.42;1.36
332;-2.32;0.10;9.57;0.01;0.24;-0.45;3.36;-3.95;2.07
341;-2.34;0.03;9.61;0.01;0.25;-0.44;2.32;-2.84;2.45
350;-2.37;0.06;9.60;0.01;0.25;-0.44;1.35;-1.61;2.99
358;-2.39;0.07;9.57;0.01;0.25;-0.44;0.19;-2.28;3.83
367;-2.36;0.14;9.58;0.00;0.25;-0.45;0.27;-2.62;4.64
376;-2.35;0.23;9.53;0.00;0.25;-0.45;0.39;-5.88;5.33
385;-2.18;0.25;9.58;0.00;0.25;-0.45;1.12;-8.13;5.95
393;-1.97;0.35;9.73;0.01;0.25;-0.45;2.16;-9.71;6.81
402;-1.81;0.39;9.84;0.01;0.25;-0.45;2.43;-11.35;6.30
411;-1.65;0.38;10.00;0.01;0.25;-0.45;1.84;-12.99;6.21
420;-1.60;0.46;10.14;0.01;0.25;-0.46;-0.09;-12.36;5.80
429;-1.59;0.46;10.18;0.01;0.25;-0.46;-2.97;-11.10;4.11
437;-1.66;0.47;10.31;0.01;0.25;-0.46;-7.27;-8.74;2.13
446;-1.78;0.47;10.30;0.01;0.24;-0.45;-11.73;-7.40;1.50
455;-1.80;0.48;10.30;0.01;0.24;-0.45;-15.07;-8.05;0.85
464;-1.84;0.46;10.42;0.01;0.24;-0.45;-16.00;-9.49;1.60
473;-1.80;0.45;10.61;0.01;0.24;-0.45;-15.27;-11.33;2.34
481;-1.68;0.42;10.87;0.01;0.24;-0.45;-12.59;-13.29;2.16
490;-1.68;0.40;10.80;0.01;0.23;-0.44;-9.36;-14.67;1.83
499;-1.45;0.24;10.70;0.01;0.23;-0.44;-4.51;-13.69;3.90
508;-1.38;0.03;10.59;0.01;0.23;-0.44;0.28;-13.15;5.85
517;-1.36;0.06;10.50;0.00;0.24;-0.45;3.43;-12.88;8.74
525;-1.21;0.15;10.49;0.00;0.24;-0.45;7.28;-12.93;11.06
534;-1.21;0.25;10.36;0.00;0.24;-0.45;9.63;-13.50;11.97
543;-1.05;0.60;10.26;0.00;0.23;-0.44;9.04;-14.05;10.24
552;-0.84;0.71;10.02;0.00;0.23;-0.44;6.43;-13.05;6.15
561;-0.76;0.78;9.92;0.00;0.23;-0.44;-1.43;-8.90;1.99
570;-0.86;0.76;9.75;-0.00;0.24;-0.44;-9.79;-3.46;-3.79
578;-1.00;0.68;9.54;-0.00;0.24;-0.44;-19.47;-0.56;-12.97
587;-0.92;0.66;9.57;-0.00;0.24;-0.44;-27.68;1.63;-15.67
596;-0.91;0.87;9.87;-0.00;0.24;-0.45;-34.40;4.16;-18.37
605;-0.45;1.12;10.23;-0.00;0.24;-0.45;-39.84;5.97;-21.40
613;0.69;1.68;10.35;-0.00;0.24;-0.45;-41.20;5.32;-20.66
622;2.07;2.30;10.56;0.00;0.23;-0.45;-33.64;3.79;-17.70
631;3.81;3.10;10.49;0.00;0.23;-0.45;-20.82;-0.68;-13.22
640;6.68;4.88;10.07;0.00;0.23;-0.45;-5.28;-7.32;-0.73
649;9.68;6.94;9.12;-0.00;0.22;-0.44;8.06;-6.84;7.57
657;12.10;9.73;7.45;-0.00;0.22;-0.44;10.30;-4.23;15.26
666;13.20;12.82;4.87;-0.00;0.22;-0.44;13.82;0.30;16.83
675;11.69;16.49;1.94;-0.01;0.23;-0.44;31.03;-0.85;-4.75
684;7.66;19.31;-1.67;-0.01;0.23;-0.44;61.28;-29.20;-68.16
693;3.50;19.60;-6.63;-0.01;0.23;-0.44;74.95;-94.98;-167.49
702;-3.70;18.15;-9.56;0.02;0.22;-0.43;63.18;-174.54;-258.40
710;-12.44;13.41;-9.55;0.02;0.22;-0.43;22.71;-253.01;-286.72
719;-19.60;6.70;-7.36;0.02;0.22;-0.43;-15.92;-286.72;-286.72
728;-19.60;-0.01;-4.06;-0.02;0.23;-0.45;-37.08;-286.72;-286.72
737;-19.60;-5.70;0.84;-0.02;0.23;-0.45;-40.19;-286.72;-286.72
746;-19.60;-12.41;9.29;-0.06;0.23;-0.44;-75.30;-286.72;-286.72
755;-19.60;-19.60;19.60;-0.06;0.23;-0.44;-174.61;-286.72;-286.72
763;-19.60;-19.60;19.60;-0.06;0.23;-0.44;-286.72;-133.18;-253.91
772;-19.60;-19.60;19.60;-0.11;0.19;-0.40;-286.72;54.87;-49.38
781;-16.61;-19.60;19.60;-0.11;0.19;-0.40;28.86;232.13;284.41
790;-19.60;3.26;4.99;-0.11;0.19;-0.40;286.68;241.65;286.68
799;-13.89;19.60;-6.95;-0.06;0.20;-0.42;286.68;176.58;286.68
808;-3.92;19.60;-9.96;-0.06;0.20;-0.42;219.83;94.08;233.81
816;-0.18;19.60;-8.82;-0.06;0.20;-0.42;-45.43;12.51;57.44
825;0.94;19.60;-4.81;-0.07;0.22;-0.45;-157.44;-35.52;-63.40
834;-2.25;17.02;0.52;-0.07;0.22;-0.45;-117.04;-53.27;-85.77
843;-6.32;8.17;4.72;-0.07;0.22;-0.45;-48.89;-73.74;-83.23
851;-8.67;2.43;8.52;-0.08;0.21;-0.42;-16.01;-64.04;-63.15
860;-8.84;-2.12;10.51;-0.08;0.21;-0.42;-20.03;-32.58;-42.49
869;-7.76;-4.19;8.87;-0.08;0.21;-0.42;-17.35;1.03;-13.09
878;-7.18;-2.32;6.42;-0.09;0.21;-0.43;10.73;22.78;24.32
887;-6.29;1.31;4.68;-0.09;0.21;-0.43;36.81;22.73;49.25
896;-5.77;5.10;4.64;-0.09;0.21;-0.43;43.76;12.25;47.69
905;-5.43;6.88;5.43;-0.09;0.21;-0.42;27.50;-1.08;29.28
913;-5.33;6.61;6.61;-0.09;0.21;-0.42;6.33;-9.42;3.89
922;-5.37;4.62;7.62;-0.09;0.21;-0.42;2.54;-13.77;-11.44
931;-5.68;2.29;8.64;-0.09;0.21;-0.43;10.12;-16.88;-14.14
940;-5.69;0.83;9.18;-0.09;0.21;-0.43;17.45;-11.69;-7.15
949;-5.40;-0.03;9.20;-0.09;0.21;-0.43;14.81;-4.56;-3.05
957;-5.38;0.06;8.68;-0.09;0.22;-0.44;5.57;-0.28;-2.14
966;-5.06;0.30;8.49;-0.09;0.22;-0.44;-3.26;1.26;-2.94
975;-4.77;0.95;8.50;-0.09;0.22;-0.44;-8.59;0.91;-1.85
984;-4.68;1.42;8.31;-0.09;0.22;-0.44;-5.14;-0.51;-1.07
993;-4.63;1.86;8.06;-0.09;0.22;-0.44;-0.93;-4.64;-0.52
1002;-4.45;2.14;8.05;-0.08;0.22;-0.43;3.52;-8.71;-1.19
1010;-4.75;1.68;8.55;-0.08;0.22;-0.43;1.32;-13.27;-6.62
1019;-5.30;1.30;9.57;-0.08;0.22;-0.43;-4.37;-15.15;-5.78
1028;-5.71;1.15;10.29;-0.09;0.22;-0.43;-9.55;-10.48;-6.96
1037;-6.07;1.04;10.38;-0.09;0.22;-0.43;-10.40;-3.67;-7.79
1046;-6.24;0.86;9.84;-0.09;0.22;-0.43;-7.54;2.21;-5.24
1055;-6.19;0.76;9.27;-0.09;0.21;-0.43;-1.99;5.32;-1.70
1063;-6.16;0.62;8.69;-0.09;0.21;-0.43;1.52;6.83;0.36
1072;-6.05;0.54;8.19;-0.09;0.21;-0.43;2.73;6.65;1.58
1081;-6.02;0.37;7.96;-0.08;0.21;-0.44;1.56;6.77;1.87
1090;-6.24;0.32;7.87;-0.08;0.21;-0.44;-1.51;6.90;1.05
1099;-6.30;0.24;8.00;-0.08;0.21;-0.44;-7.87;7.21;-1.42
1107;-6.35;0.22;8.09;-0.09;0.22;-0.44;-12.64;9.16;-1.84
1116;-6.22;0.34;7.66;-0.09;0.22;-0.44;-8.48;11.44;1.72
1125;-5.91;0.50;7.30;-0.09;0.22;-0.44;-1.76;10.78;8.20
1134;-5.72;0.82;7.13;-0.09;0.22;-0.43;4.00;9.47;12.18
1143;-5.55;1.17;6.74;-0.09;0.22;-0.43;9.83;7.98;14.08
1151;-5.49;1.09;6.59;-0.09;0.22;-0.43;11.19;4.88;13.71
1160;-5.46;1.02;6.57;-0.09;0.22;-0.44;6.96;1.51;11.38
1169;-5.71;1.03;6.68;-0.09;0.22;-0.44;0.93;-2.77;8.62
1178;-5.72;1.03;7.17;-0.09;0.22;-0.44;-4.25;-5.67;5.43
1187;-5.81;1.18;7.62;-0.09;0.23;-0.44;-6.98;-2.30;4.69
1196;-5.93;1.44;7.69;-0.09;0.23;-0.44;-3.89;-1.78;6.55
1205;-5.95;1.72;7.89;-0.09;0.23;-0.44;3.07;0.94;9.81
1213;-5.90;1.81;8.02;-0.09;0.22;-0.42;10.04;4.50;14.09
1222;-5.85;1.84;8.06;-0.09;0.22;-0.42;19.01;7.25;17.09
1231;-5.66;1.88;7.75;-0.09;0.22;-0.42;24.62;9.14;18.08
1240;-5.62;1.69;7.51;-0.09;0.23;-0.44;22.46;7.89;15.79
1249;-5.64;1.59;7.31;-0.09;0.23;-0.44;11.48;4.76;13.19
1258;-5.54;1.88;7.32;-0.09;0.24;-0.44;5.42;2.38;10.74
1266;-5.75;1.92;7.53;-0.09;0.24;-0.44;3.04;-1.27;7.82
1275;-5.72;1.85;7.80;-0.09;0.24;-0.44;1.35;-3.11;7.12
1284;-5.69;1.81;8.19;-0.10;0.23;-0.44;-0.04;-2.29;6.55
1293;-5.96;1.50;8.25;-0.10;0.23;-0.44;0.52;-0.38;6.88
1301;-6.00;1.35;8.58;-0.10;0.23;-0.44;3.57;1.54;9.53
1310;-6.02;1.46;8.77;-0.10;0.25;-0.43;10.17;4.39;14.26
1319;-6.09;1.47;8.53;-0.10;0.25;-0.43;18.60;6.52;16.94
1328;-6.19;1.17;8.27;-0.10;0.25;-0.43;22.30;6.59;18.16
1336;-6.19;0.96;8.11;-0.09;0.24;-0.44;23.75;8.93;19.33
1345;-6.16;0.85;7.79;-0.09;0.24;-0.44;21.80;8.44;18.27
1354;-6.33;0.60;7.54;-0.09;0.24;-0.44;9.51;10.17;14.60
1363;-6.50;0.25;7.32;-0.09;0.25;-0.45;-4.04;9.86;10.07
1372;-6.60;-0.08;7.57;-0.09;0.25;-0.45;-16.84;9.22;7.74
1381;-6.42;-0.26;7.96;-0.09;0.25;-0.45;-20.08;9.75;9.54
1389;-6.29;0.20;8.21;-0.09;0.24;-0.43;-15.96;11.70;16.53
1398;-6.43;0.77;8.21;-0.09;0.24;-0.43;-4.43;13.58;22.44
1407;-6.62;1.03;8.20;-0.09;0.24;-0.43;7.73;13.99;26.22
1416;-6.74;1.16;8.25;-0.10;0.25;-0.44;17.73;14.33;31.35
1425;-7.00;1.03;8.11;-0.10;0.25;-0.44;28.36;14.97;30.31
1433;-6.83;0.76;7.99;-0.10;0.25;-0.44;40.30;16.18;30.68
1442;-6.37;0.61;7.80;-0.10;0.26;-0.45;47.47;17.87;28.19
1451;-6.33;-0.07;7.40;-0.10;0.26;-0.45;46.72;19.81;24.12
1460;-6.36;-0.52;6.60;-0.10;0.26;-0.45;28.74;18.17;28.90
1469;-6.05;-0.37;6.50;-0.10;0.27;-0.45;11.22;17.26;29.84
1477;-6.11;-0.17;6.46;-0.10;0.27;-0.45;-4.94;14.32;21.39
1486;-5.95;-0.42;6.55;-0.10;0.27;-0.45;-21.19;13.84;14.76
1495;-6.05;-0.31;6.85;-0.10;0.27;-0.44;-36.83;13.88;11.60
1504;-6.08;-0.09;7.30;-0.10;0.27;-0.44;-43.96;14.84;9.20
1513;-6.26;0.06;7.86;-0.10;0.27;-0.44;-43.99;17.39;10.68
1521;-6.39;0.40;8.47;-0.09;0.26;-0.43;-34.17;19.48;12.75
1530;-6.63;0.60;8.91;-0.09;0.26;-0.43;-18.92;20.48;12.72
1539;-6.67;0.72;8.81;-0.09;0.26;-0.44;-1.09;20.76;13.10
1548;-6.43;0.59;8.43;-0.09;0.26;-0.44;15.65;21.68;15.64
1557;-6.34;0.59;7.90;-0.09;0.26;-0.44;27.39;22.77;21.82
1565;-6.18;0.31;7.41;-0.09;0.26;-0.46;35.61;20.36;29.41
1574;-5.42;0.14;7.02;-0.09;0.26;-0.46;35.38;17.02;40.01
1583;-5.07;0.28;6.72;-0.09;0.26;-0.46;26.08;14.91;47.06
1592;-4.88;0.79;6.65;-0.09;0.27;-0.46;15.99;11.96;46.00
1601;-4.79;1.15;6.79;-0.09;0.27;-0.46;5.01;9.67;37.28
1610;-5.02;1.19;6.98;-0.09;0.27;-0.46;-9.42;9.84;25.51
1618;-5.25;1.17;7.35;-0.09;0.28;-0.45;-22.82;10.49;16.14
1627;-5.37;1.19;7.67;-0.09;0.28;-0.45;-30.04;12.70;8.08
1636;-5.31;1.03;7.95;-0.09;0.28;-0.45;-30.14;17.77;3.52
1645;-5.32;0.84;8.06;-0.08;0.27;-0.45;-26.68;22.01;0.54
1654;-5.08;0.63;7.87;-0.08;0.27;-0.45;-19.77;24.55;-1.00
1662;-5.19;0.41;7.55;-0.08;0.27;-0.45;-13.50;24.22;3.32
1671;-4.83;0.33;7.14;-0.08;0.27;-0.44;-8.30;21.86;13.30
1680;-4.67;0.74;6.88;-0.08;0.27;-0.44;-4.27;17.73;21.64
1689;-4.60;0.92;6.88;-0.08;0.27;-0.44;-0.56;9.19;23.26
1698;-4.47;1.22;7.22;-0.08;0.27;-0.45;0.51;3.57;19.15
1706;-4.53;1.29;7.88;-0.08;0.27;-0.45;-5.97;2.73;12.20
1715;-4.67;1.23;8.42;-0.08;0.27;-0.45;-13.40;5.95;0.81
1724;-4.84;1.23;8.65;-0.08;0.27;-0.45;-18.71;12.65;-4.68
1733;-5.04;0.93;8.81;-0.08;0.27;-0.45;-19.29;16.64;-10.32
1742;-4.94;0.61;8.88;-0.08;0.27;-0.45;-17.18;19.28;-11.59
1751;-5.07;0.54;8.88;-0.08;0.27;-0.44;-13.02;22.11;-6.80
1759;-5.07;0.18;8.50;-0.08;0.27;-0.44;-5.98;20.26;-0.58
1768;-4.97;-0.29;7.94;-0.08;0.27;-0.44;-0.19;13.85;9.99
1777;-4.85;-0.40;7.72;-0.07;0.27;-0.46;1.15;5.94;23.09
1786;-4.84;0.23;7.69;-0.07;0.27;-0.46;1.01;-3.18;28.41
1795;-4.75;0.56;8.05;-0.07;0.27;-0.46;-0.38;-7.80;26.47
1803;-4.83;1.00;8.51;-0.07;0.27;-0.46;-6.06;-7.43;21.42
1812;-4.89;1.16;8.87;-0.07;0.27;-0.46;-13.64;-2.44;15.96
1821;-4.93;1.26;9.17;-0.07;0.27;-0.46;-20.84;1.57;9.28
1830;-5.15;1.23;9.49;-0.08;0.27;-0.46;-22.23;5.04;2.73
1839;-5.08;0.90;9.59;-0.08;0.27;-0.46;-20.14;8.65;2.00
1848;-4.95;0.65;9.65;-0.08;0.27;-0.44;-15.64;10.71;4.29
1856;-5.01;0.61;9.46;-0.08;0.27;-0.44;-9.65;8.36;7.85
1865;-5.02;0.53;8.92;-0.08;0.27;-0.44;-3.69;3.17;13.39
1874;-4.98;0.46;8.72;-0.08;0.27;-0.45;5.43;-2.78;16.85
1883;-4.90;0.74;8.61;-0.08;0.27;-0.45;12.99;-8.28;19.45
1892;-4.67;0.61;8.56;-0.08;0.27;-0.45;16.51;-9.62;20.44
1900;-4.68;0.64;8.36;-0.08;0.27;-0.45;12.51;-8.34;19.84
1909;-4.65;0.49;8.30;-0.08;0.27;-0.45;4.75;-5.73;17.20
1918;-4.57;0.51;8.27;-0.08;0.27;-0.45;-4.59;-2.13;14.38
1927;-4.56;0.48;8.44;-0.08;0.27;-0.44;-13.33;0.12;11.04
1936;-4.69;0.41;8.46;-0.08;0.27;-0.44;-13.60;0.71;7.46
1944;-4.68;0.28;8.58;-0.08;0.27;-0.44;-10.71;1.74;7.85
1953;-4.79;0.37;8.56;-0.08;0.27;-0.44;-6.21;2.94;9.69
1962;-4.77;0.61;7.99;-0.08;0.27;-0.44;2.08;-1.05;12.41
1971;-4.55;0.59;7.72;-0.08;0.27;-0.44;11.35;-6.99;13.40
1980;-4.28;0.42;7.66;-0.08;0.26;-0.45;17.35;-12.94;15.22
1989;-4.23;0.34;7.92;-0.08;0.26;-0.45;15.45;-15.15;18.06
1998;-4.22;0.56;8.06;-0.08;0.26;-0.45;9.90;-14.32;16.94
2006;-4.08;0.51;8.34;-0.09;0.27;-0.44;3.35;-8.76;11.81
2015;-4.30;0.49;8.54;-0.09;0.27;-0.44;-3.22;-1.34;8.06
2024;-4.51;0.42;8.63;-0.09;0.27;-0.44;-8.52;5.29;3.45
2033;-4.61;0.53;8.53;-0.09;0.27;-0.46;-11.42;9.55;0.06
2042;-4.72;0.67;8.29;-0.09;0.27;-0.46;-12.28;9.99;-1.78
2050;-4.79;0.70;8.21;-0.09;0.27;-0.46;-12.85;7.26;-3.16
2059;-4.61;0.52;8.28;-0.08;0.26;-0.45;-13.47;4.62;-3.38
2068;-4.64;0.44;8.65;-0.08;0.26;-0.45;-11.22;2.39;-1.64
2077;-4.60;0.34;8.87;-0.08;0.26;-0.45;-10.01;0.93;0.82
2086;-4.62;0.40;8.83;-0.08;0.27;-0.45;-4.87;-0.81;3.37
2094;-4.48;0.52;8.93;-0.08;0.27;-0.45;2.19;-3.52;4.59
2103;-4.33;0.53;8.89;-0.08;0.27;-0.45;3.40;-3.41;5.36
2112;-4.28;0.50;8.88;-0.08;0.27;-0.45;6.05;-2.09;5.76
2121;-4.37;0.61;8.69;-0.08;0.27;-0.45;9.41;-0.72;5.48
2130;-4.45;0.60;8.48;-0.08;0.27;-0.45;12.64;-0.95;3.94
2138;-4.32;0.51;8.33;-0.08;0.27;-0.45;13.79;-2.56;2.80
2147;-4.21;0.30;8.31;-0.08;0.27;-0.45;10.47;-3.69;0.97
2156;-4.16;0.15;8.33;-0.09;0.27;-0.45;4.38;-2.92;1.39
2165;-4.18;0.11;8.40;-0.09;0.27;-0.45;-2.18;-2.03;2.37
2174;-4.23;0.19;8.59;-0.09;0.27;-0.45;-5.49;-2.08;2.97
2183;-4.16;0.28;8.71;-0.08;0.27;-0.45;-2.21;-3.40;4.09
2192;-4.27;0.61;8.94;-0.08;0.27;-0.45;4.75;-4.93;3.61
2200;-4.20;0.46;8.84;-0.08;0.27;-0.45;11.85;-6.26;3.43
2209;-4.23;0.43;8.68;-0.09;0.27;-0.45;17.11;-7.03;3.81
2218;-4.10;0.22;8.66;-0.09;0.27;-0.45;17.96;-7.24;3.88
2227;-4.04;-0.02;8.54;-0.09;0.27;-0.45;16.59;-6.55;3.93
2235;-4.19;-0.19;8.67;-0.08;0.27;-0.46;11.55;-2.44;3.76
2244;-4.21;-0.13;8.64;-0.08;0.27;-0.46;6.36;-2.90;3.33
2253;-4.14;-0.28;9.00;-0.08;0.27;-0.46;5.11;-1.40;1.62
2262;-4.08;-0.44;8.85;-0.09;0.27;-0.45;6.32;0.52;1.31
2271;-3.91;-0.32;8.80;-0.09;0.27;-0.45;6.56;2.77;1.82
2280;-3.79;-0.17;8.76;-0.09;0.27;-0.45;5.83;4.66;1.49
2288;-3.48;0.01;8.80;-0.08;0.28;-0.45;4.85;5.38;-0.35
2297;-3.44;-0.00;8.96;-0.08;0.28;-0.45;0.45;5.25;-2.51
2306;-3.50;0.09;9.05;-0.08;0.28;-0.45;-2.01;3.69;-3.68
2315;-3.48;0.06;9.19;-0.08;0.28;-0.45;-5.61;2.00;-4.83
2324;-3.48;-0.12;9.45;-0.08;0.28;-0.45;-7.70;0.83;-4.34
2332;-3.52;-0.16;9.62;-0.08;0.28;-0.45;-6.68;0.67;-3.43
2341;-3.51;-0.10;9.70;-0.08;0.28;-0.45;-4.22;0.95;-1.59
2350;-3.47;-0.06;9.64;-0.08;0.28;-0.45;-0.75;0.83;-0.51
2359;-3.41;0.09;9.64;-0.08;0.28;-0.46;2.53;1.66;-1.13
2368;-3.42;0.08;9.57;-0.08;0.27;-0.46;3.31;2.63;-3.13
2376;-3.39;-0.03;9.24;-0.08;0.27;-0.46;2.56;4.20;-4.44
2385;-3.42;-0.10;9.22;-0.09;0.27;-0.46;1.64;5.70;-4.32
2394;-3.57;-0.05;9.02;-0.09;0.27;-0.46;0.76;5.53;-4.03
2403;-3.66;-0.12;9.08;-0.09;0.27;-0.46;0.36;6.00;-4.08
2412;-3.72;-0.12;8.95;-0.08;0.28;-0.45;0.16;6.34;-4.52
2421;-3.80;-0.15;8.76;-0.08;0.28;-0.45;0.02;6.39;-4.78
2429;-3.96;-0.18;8.47;-0.08;0.28;-0.45;-0.29;6.10;-4.07
2438;-4.04;-0.25;8.17;-0.08;0.28;-0.46;-1.20;4.76;-1.79
2447;-4.16;-0.27;8.06;-0.08;0.28;-0.46;-1.40;2.90;0.03
2456;-4.29;-0.16;8.05;-0.08;0.28;-0.46;-1.29;0.65;0.89
2464;-4.30;-0.06;8.17;-0.08;0.28;-0.44;-1.50;-0.33;0.51
2473;-4.34;0.04;8.32;-0.08;0.28;-0.44;-1.94;-0.22;-2.05
2482;-4.29;0.07;8.48;-0.08;0.28;-0.44;-1.62;0.03;-4.76
2491;-4.28;0.04;8.44;-0.08;0.28;-0.46;-2.01;0.83;-6.29
2500;-4.39;0.04;8.41;-0.08;0.28;-0.46;-2.04;0.69;-6.17
2508;-4.32;0.02;8.34;-0.08;0.28;-0.46;-2.62;0.25;-5.70
2517;-4.36;0.00;8.39;-0.09;0.27;-0.44;-2.65;0.42;-4.76
2526;-4.35;-0.08;8.28;-0.09;0.27;-0.44;-2.21;0.60;-3.69
2535;-4.34;-0.15;8.39;-0.09;0.27;-0.44;-1.58;0.79;-1.92
2544;-4.13;-0.16;8.42;-0.08;0.27;-0.46;-0.54;1.18;-0.47
2553;-4.21;-0.00;8.44;-0.08;0.27;-0.46;-0.93;0.80;-0.38
2561;-4.03;-0.06;8.46;-0.08;0.27;-0.46;-1.74;-0.06;-1.34
2570;-4.00;-0.15;8.50;-0.08;0.28;-0.45;-2.88;-1.84;-2.24
2579;-3.86;-0.16;8.59;-0.08;0.28;-0.45;-3.01;-3.31;-2.39
2588;-3.89;-0.18;8.72;-0.08;0.28;-0.45;-2.75;-4.36;-3.84
2597;-3.73;-0.34;8.73;-0.08;0.27;-0.45;-1.28;-5.46;-4.34
2605;-3.80;-0.38;8.83;-0.08;0.27;-0.45;-2.17;-5.37;-4.34
2614;-3.76;-0.41;8.99;-0.08;0.27;-0.45;-3.83;-4.47;-4.10
2623;-3.65;-0.45;9.14;-0.08;0.27;-0.45;-5.41;-3.60;-4.06
2632;-3.62;-0.53;9.27;-0.08;0.27;-0.45;-5.26;-2.58;-3.81
2641;-3.66;-0.53;9.51;-0.08;0.27;-0.45;-4.23;-1.11;-2.61
2650;-3.60;-0.57;9.33;-0.08;0.28;-0.45;-3.91;-0.11;-0.73
2659;-3.42;-0.57;9.16;-0.08;0.28;-0.45;-3.55;-0.25;0.78
2667;-3.48;-0.40;9.12;-0.08;0.28;-0.44;-3.79;-0.25;0.78
2676;-3.28;-0.36;9.08;-0.08;0.28;-0.44;-5.42;-0.66;0.77
2685;-3.15;-0.29;9.24;-0.08;0.28;-0.44;-9.32;-0.62;-0.33
2694;-3.12;0.01;9.33;-0.08;0.27;-0.44;-14.52;0.82;-3.82
2703;-3.34;0.28;9.47;-0.08;0.27;-0.44;-21.47;3.63;-9.11
2711;-3.29;0.27;9.63;-0.08;0.27;-0.44;-30.84;8.09;-13.56
2720;-3.24;0.25;9.71;-0.08;0.26;-0.44;-38.67;12.18;-15.89
2729;-3.21;0.01;9.71;-0.08;0.26;-0.44;-42.93;14.68;-14.29
2738;-3.04;-0.18;9.79;-0.08;0.26;-0.44;-38.51;12.79;-8.57
2747;-2.91;-0.31;9.61;-0.07;0.26;-0.43;-27.77;6.89;-0.52
2756;-2.79;-0.23;9.52;-0.07;0.26;-0.43;-15.90;-1.25;8.59
2764;-2.65;0.11;9.42;-0.07;0.26;-0.43;-4.66;-7.86;15.16
2773;-2.55;0.59;9.57;-0.08;0.26;-0.45;3.17;-10.61;14.12
2782;-2.58;0.71;9.53;-0.08;0.26;-0.45;4.53;-7.99;6.94
2791;-2.80;0.70;9.47;-0.08;0.26;-0.45;-3.04;-3.53;0.46
2800;-2.64;0.63;9.23;-0.08;0.26;-0.45;-12.48;1.44;-4.51
2809;-3.11;0.79;9.08;-0.08;0.26;-0.45;-18.64;7.74;-10.06
2818;-3.28;0.78;8.78;-0.08;0.26;-0.45;-25.49;10.01;-13.55
2826;-3.08;0.61;8.58;-0.08;0.25;-0.45;-28.52;9.11;-14.62
2835;-3.00;0.24;8.71;-0.08;0.25;-0.45;-29.07;8.18;-12.38
2844;-2.95;0.00;8.66;-0.08;0.25;-0.45;-28.79;5.25;-5.04
2853;-2.78;-0.14;8.66;-0.07;0.25;-0.44;-25.79;2.85;8.22
2862;-2.82;0.55;9.30;-0.07;0.25;-0.44;-21.53;-3.04;12.80
2871;-2.26;1.39;10.19;-0.07;0.25;-0.44;-5.41;-4.10;18.10
2879;-1.74;1.98;10.79;-0.08;0.25;-0.44;20.68;-7.70;5.50
2888;-0.93;1.90;11.17;-0.08;0.25;-0.44;39.30;-2.88;0.44
2897;-0.03;2.43;11.25;-0.08;0.25;-0.44;50.65;1.64;1.21
2906;1.36;4.05;11.31;-0.08;0.25;-0.44;60.17;7.45;1.84
2915;2.98;6.34;11.57;-0.08;0.25;-0.44;69.12;16.83;-1.32
2924;4.83;9.37;11.58;-0.08;0.27;-0.44;55.99;37.01;-18.23
2932;6.12;12.17;11.08;-0.08;0.27;-0.44;14.52;65.19;-39.50
2941;6.51;15.39;9.84;-0.08;0.27;-0.44;-20.71;92.34;-56.28
2950;5.28;17.49;7.46;-0.07;0.27;-0.44;-23.42;109.36;-67.79
2959;3.17;18.80;3.91;-0.07;0.27;-0.44;36.14;108.05;-85.03
2968;-1.95;18.98;-0.16;-0.07;0.27;-0.44;115.68;85.83;-146.71
2977;-7.38;18.88;-4.68;-0.03;0.28;-0.45;158.88;44.76;-225.70
2985;-13.89;16.13;-10.51;-0.03;0.28;-0.45;145.89;-18.25;-286.72
2994;-19.60;8.73;-14.24;-0.03;0.28;-0.45;78.73;-108.20;-286.72
3003;-19.60;-1.35;-13.81;-0.02;0.30;-0.45;-46.22;-222.72;-286.72
3012;-19.60;-11.86;-8.23;-0.02;0.30;-0.45;-189.50;-286.72;-286.72
3021;-19.60;-19.60;3.18;-0.02;0.30;-0.45;-286.72;-286.72;-286.72
3030;-19.60;-19.60;19.60;-0.09;0.27;-0.44;-286.72;-286.72;-286.72
3039;-19.60;-19.60;19.60;-0.09;0.27;-0.44;-286.72;-220.18;-212.93
3048;-8.19;-19.60;19.60;-0.09;0.27;-0.44;-286.72;55.83;153.20
3056;-15.64;-5.65;19.60;-0.11;0.16;-0.38;195.06;172.47;286.68
3065;-19.60;19.14;17.31;-0.11;0.16;-0.38;286.68;190.11;286.68
3074;-16.96;19.60;7.15;-0.11;0.16;-0.38;286.68;135.59;286.68
3083;-7.60;19.60;1.31;-0.11;0.27;-0.45;286.68;129.13;227.73
3092;-0.29;19.60;-5.04;-0.11;0.27;-0.45;19.57;111.66;46.27
3101;-0.04;19.60;-7.86;-0.11;0.27;-0.45;-217.11;47.61;-80.26
3110;-1.63;8.37;-5.64;-0.09;0.28;-0.44;-198.35;-12.67;-126.65
3118;-5.34;-1.06;-0.08;-0.09;0.28;-0.44;-87.90;-93.88;-111.86
3127;-8.71;-3.12;6.72;-0.09;0.28;-0.44;-24.87;-110.48;-45.60
3136;-9.51;-3.39;13.44;-0.10;0.26;-0.44;-18.13;-70.62;2.85
3145;-7.88;-1.35;14.89;-0.10;0.26;-0.44;-34.17;-15.72;12.24
3154;-6.42;0.68;11.97;-0.11;0.26;-0.43;-12.64;23.14;17.75
3163;-6.26;2.31;7.86;-0.11;0.26;-0.43;22.92;35.99;30.30
3172;-5.21;4.07;5.42;-0.11;0.26;-0.43;49.20;22.13;40.68
3181;-4.89;5.00;5.50;-0.10;0.26;-0.44;45.28;0.83;34.30
3190;-4.94;5.18;7.05;-0.10;0.26;-0.44;6.83;-18.29;7.39
3198;-5.37;4.33;8.88;-0.10;0.26;-0.44;-32.40;-27.05;-11.91
3207;-5.92;3.03;10.49;-0.11;0.27;-0.44;-43.68;-27.07;-22.67
3216;-5.48;1.74;11.26;-0.11;0.27;-0.44;-30.33;-16.48;-19.78
3225;-5.34;0.85;10.87;-0.11;0.27;-0.44;-4.99;-0.25;-10.83
3234;-5.11;0.35;9.67;-0.11;0.26;-0.44;7.25;10.19;-3.17
3243;-5.01;0.21;8.82;-0.11;0.26;-0.44;4.84;15.79;-2.47
3251;-5.00;0.16;8.01;-0.11;0.26;-0.44;-9.61;13.26;-7.03
3260;-5.42;0.05;7.76;-0.11;0.26;-0.44;-21.08;4.54;-8.34
3269;-5.57;0.41;8.42;-0.11;0.26;-0.44;-22.71;-4.43;-7.28
3278;-5.83;0.82;9.08;-0.11;0.26;-0.44;-16.18;-8.02;-3.43
3287;-5.96;1.35;9.53;-0.11;0.26;-0.44;-6.37;-8.49;-0.92
3296;-6.03;1.48;9.57;-0.11;0.26;-0.44;5.85;-7.93;2.01
3304;-5.85;1.12;9.39;-0.11;0.26;-0.44;14.51;-6.01;3.01
3313;-5.87;0.71;9.24;-0.11;0.26;-0.43;12.96;-2.42;1.35
3322;-5.74;0.58;8.99;-0.11;0.26;-0.43;3.35;3.55;-0.45
3331;-5.96;0.21;8.81;-0.11;0.26;-0.43;-11.16;10.80;-4.44
3340;-6.15;0.18;8.47;-0.11;0.26;-0.43;-20.81;16.11;-5.22
3348;-6.07;0.66;8.04;-0.11;0.26;-0.43;-19.76;19.08;-2.69
3357;-6.12;1.15;7.38;-0.11;0.26;-0.43;-10.94;19.93;-0.27
3366;-5.85;1.55;6.73;-0.11;0.26;-0.44;-2.09;17.57;3.31
3375;-5.70;1.74;6.27;-0.11;0.26;-0.44;8.02;12.72;7.70
3384;-5.64;1.61;6.08;-0.11;0.26;-0.44;13.51;5.53;8.59
3393;-5.46;1.12;6.44;-0.10;0.26;-0.43;14.62;-0.01;9.73
3401;-5.45;1.04;6.91;-0.10;0.26;-0.43;13.97;-1.33;10.78
3410;-5.68;1.33;7.26;-0.10;0.26;-0.44;8.43;-0.45;8.51
3419;-5.76;1.85;7.41;-0.10;0.26;-0.44;-5.07;1.47;1.82
3428;-5.75;1.91;7.52;-0.10;0.26;-0.44;-18.67;1.75;-4.39
3437;-5.79;1.81;7.64;-0.11;0.26;-0.44;-20.32;1.29;-7.39
3445;-5.39;1.93;7.51;-0.11;0.26;-0.44;-11.01;1.10;-4.90
3454;-5.32;2.02;7.27;-0.11;0.26;-0.44;2.32;0.78;-0.95
3463;-5.19;1.94;6.90;-0.10;0.26;-0.44;11.93;-0.99;0.38
3472;-5.08;1.48;7.07;-0.10;0.26;-0.44;11.68;-2.73;0.13
3481;-5.08;1.24;7.53;-0.10;0.26;-0.44;8.08;-3.36;0.48
3490;-5.26;1.04;7.95;-0.10;0.27;-0.44;2.60;-3.33;-0.07
3498;-5.44;1.02;8.25;-0.10;0.27;-0.44;-3.30;-1.92;0.34
3507;-5.39;1.16;8.46;-0.10;0.27;-0.44;-7.35;1.20;0.25
3516;-5.42;1.40;8.34;-0.10;0.26;-0.44;-7.53;3.79;0.50
3525;-5.36;1.59;8.17;-0.10;0.26;-0.44;-2.21;6.45;2.60
3534;-5.13;1.72;7.67;-0.10;0.26;-0.44;5.60;8.23;4.43
3542;-5.21;1.65;7.32;-0.11;0.25;-0.43;10.67;5.93;4.37
3551;-5.14;1.31;7.26;-0.11;0.25;-0.43;11.12;1.90;2.45
3560;-5.26;0.78;7.47;-0.11;0.25;-0.43;7.24;-2.46;-0.25
3569;-5.34;0.46;7.78;-0.10;0.26;-0.44;1.03;-6.47;-2.47
3578;-5.52;0.53;8.20;-0.10;0.26;-0.44;-6.19;-6.17;-2.42
3587;-5.51;0.81;8.46;-0.10;0.26;-0.44;-7.24;-3.42;-0.66
3595;-5.69;1.10;8.54;-0.10;0.25;-0.44;-3.10;0.12;1.74
3604;-5.63;1.24;8.40;-0.10;0.25;-0.44;3.40;3.28;4.62
3613;-5.55;1.26;8.05;-0.10;0.25;-0.44;7.74;5.93;6.88
3622;-5.60;1.27;7.55;-0.10;0.27;-0.44;10.93;5.52;8.53
3630;-5.67;1.23;7.18;-0.10;0.27;-0.44;10.99;2.01;8.78
3639;-5.57;1.21;7.27;-0.10;0.27;-0.44;8.53;-1.06;7.73
3648;-5.68;1.42;7.55;-0.10;0.26;-0.44;2.84;-2.55;3.92
3657;-5.65;1.53;7.85;-0.10;0.26;-0.44;-5.09;-1.82;0.73
3666;-5.68;1.49;7.94;-0.10;0.26;-0.45;-6.53;-0.43;-0.56
3675;-5.75;1.34;7.93;-0.10;0.27;-0.45;-1.29;0.17;1.19
3684;-5.76;1.33;7.92;-0.10;0.27;-0.45;6.57;1.14;4.83
3693;-5.66;1.41;7.77;-0.10;0.27;-0.44;13.57;2.22;7.78
3701;-5.60;1.17;7.54;-0.10;0.27;-0.44;19.40;0.66;10.43
3710;-5.45;1.09;7.53;-0.10;0.27;-0.44;24.40;-1.01;12.12
3719;-5.40;1.21;7.47;-0.10;0.27;-0.45;22.69;-1.23;10.92
3728;-5.50;1.30;7.35;-0.10;0.27;-0.45;10.90;-1.41;4.83
3737;-5.67;1.25;7.41;-0.10;0.27;-0.45;-4.42;-3.37;-0.40
3746;-5.67;1.08;7.72;-0.11;0.27;-0.45;-8.56;-4.87;-1.72
3754;-5.68;1.14;8.12;-0.11;0.27;-0.45;-3.13;-4.93;3.07
3763;-5.75;1.41;8.30;-0.11;0.27;-0.45;12.98;-4.22;10.64
3772;-5.90;1.70;8.23;-0.10;0.28;-0.44;31.35;-4.66;17.09
3781;-5.62;1.82;8.15;-0.10;0.28;-0.44;46.15;-4.94;22.19
3790;-5.23;1.62;7.66;-0.10;0.28;-0.44;52.67;-3.40;21.06
3799;-5.35;1.14;6.97;-0.11;0.28;-0.45;46.60;-2.56;17.75
3807;-5.39;0.70;6.78;-0.11;0.28;-0.45;32.47;-2.76;12.40
3816;-5.50;0.59;6.93;-0.11;0.28;-0.45;13.13;-3.46;5.49
3825;-5.63;0.19;7.29;-0.11;0.29;-0.46;-2.58;-4.23;0.70
3834;-5.91;-0.03;7.71;-0.11;0.29;-0.46;-10.26;-3.85;-0.25
3843;-6.13;0.10;8.00;-0.11;0.29;-0.46;-10.21;-3.42;2.46
3852;-6.34;0.14;8.27;-0.11;0.29;-0.46;-4.11;-2.37;6.50
3860;-6.66;0.24;8.64;-0.11;0.29;-0.46;1.64;-0.41;11.75
3869;-6.46;0.53;8.75;-0.11;0.29;-0.46;10.36;3.97;16.16
3878;-6.54;0.64;8.53;-0.11;0.29;-0.45;17.69;8.16;20.69
3887;-6.35;0.66;8.29;-0.11;0.29;-0.45;25.29;10.32;22.85
3896;-5.89;0.36;7.71;-0.11;0.29;-0.45;30.55;10.90;21.94
3905;-6.15;0.14;7.16;-0.11;0.30;-0.45;26.42;10.95;19.67
3914;-6.05;-0.02;6.89;-0.11;0.30;-0.45;15.80;7.53;14.42
3922;-6.13;-0.11;6.97;-0.11;0.30;-0.46;2.39;5.63;7.94
3931;-6.25;-0.24;7.38;-0.11;0.30;-0.46;-6.29;5.57;4.03
3940;-6.35;-0.09;7.71;-0.11;0.30;-0.46;-11.93;6.19;3.71
3949;-6.47;-0.10;8.15;-0.11;0.31;-0.44;-13.61;8.23;5.90
3958;-6.65;0.00;8.59;-0.11;0.31;-0.44;-11.21;9.41;8.69
3967;-6.97;0.38;8.76;-0.11;0.31;-0.44;-5.57;9.05;11.60
3976;-7.04;0.68;8.90;-0.11;0.30;-0.45;4.75;7.74;9.48
3984;-6.93;0.34;8.96;-0.11;0.30;-0.45;13.94;8.75;6.35
3993;-6.99;0.10;8.60;-0.11;0.30;-0.45;18.86;13.37;11.00
4002;-6.87;-0.01;8.20;-0.11;0.31;-0.45;23.32;12.34;18.63
4011;-6.60;0.11;7.80;-0.11;0.31;-0.45;26.55;11.44;24.19
4020;-6.30;0.22;7.70;-0.11;0.31;-0.45;30.45;7.96;26.57
4028;-6.13;0.25;7.40;-0.11;0.32;-0.46;29.92;4.92;26.84
4037;-5.99;0.30;7.39;-0.11;0.32;-0.46;20.13;3.10;25.66
4046;-5.91;0.33;7.36;-0.11;0.32;-0.46;7.24;1.79;22.28
4055;-5.86;0.48;7.49;-0.11;0.33;-0.45;-3.35;1.64;14.93
4064;-5.78;0.44;7.56;-0.11;0.33;-0.45;-12.42;0.80;5.98
4073;-6.05;0.45;7.70;-0.11;0.33;-0.45;-16.48;2.03;-0.12
4081;-6.11;0.19;7.88;-0.10;0.32;-0.46;-19.06;4.41;-5.49
4090;-5.85;0.13;7.83;-0.10;0.32;-0.46;-19.62;4.44;-9.31
4099;-5.83;-0.11;8.00;-0.10;0.32;-0.46;-18.57;7.43;-7.28
4108;-5.78;-0.27;7.86;-0.11;0.32;-0.44;-18.31;12.36;0.06
4117;-5.81;-0.23;7.46;-0.11;0.32;-0.44;-18.44;14.47;6.04
4126;-5.73;-0.11;7.11;-0.11;0.32;-0.44;-19.47;14.68;10.80
4134;-5.85;0.14;7.15;-0.11;0.32;-0.47;-20.73;11.86;11.90
4143;-5.96;0.37;7.26;-0.11;0.32;-0.47;-20.95;7.76;10.10
4152;-6.17;0.63;7.64;-0.11;0.32;-0.47;-19.79;4.87;8.45
4161;-6.01;0.90;8.21;-0.10;0.31;-0.46;-16.84;3.50;3.07
4170;-5.91;0.85;8.45;-0.10;0.31;-0.46;-12.64;5.03;-0.76
4179;-5.86;0.71;8.42;-0.10;0.31;-0.45;-15.64;11.22;-0.17
4188;-5.78;0.44;8.23;-0.10;0.31;-0.45;-19.03;16.79;1.86
4196;-5.77;0.17;8.05;-0.10;0.31;-0.45;-18.42;22.89;6.16
4205;-5.75;-0.02;7.57;-0.09;0.31;-0.47;-13.76;23.64;11.95
4214;-5.63;-0.15;7.22;-0.09;0.31;-0.47;-7.09;21.07;17.83
4223;-5.50;-0.13;7.03;-0.09;0.31;-0.47;-4.01;16.35;21.31
4232;-5.41;0.24;7.05;-0.10;0.31;-0.46;-6.01;12.22;20.10
4241;-5.35;0.38;7.16;-0.10;0.31;-0.46;-13.29;9.52;17.34
4249;-5.46;0.87;7.47;-0.10;0.31;-0.46;-22.83;7.91;11.98
4258;-5.47;1.04;8.18;-0.10;0.31;-0.46;-32.82;9.19;6.03
4267;-5.52;0.82;8.73;-0.10;0.31;-0.46;-37.53;13.72;1.70
4276;-5.49;0.65;8.84;-0.10;0.31;-0.46;-36.78;15.81;2.47
4285;-5.44;0.34;8.81;-0.10;0.30;-0.45;-25.24;17.61;5.22
4293;-5.44;0.08;8.61;-0.10;0.30;-0.45;-9.35;15.55;12.92
4302;-5.21;0.03;8.04;-0.10;0.30;-0.45;4.08;10.53;18.44
4311;-5.08;0.00;7.73;-0.09;0.29;-0.46;12.19;4.08;23.02
4320;-5.10;0.15;7.30;-0.09;0.29;-0.46;12.60;-4.76;23.85
4329;-4.79;0.25;7.33;-0.09;0.29;-0.46;7.45;-11.35;21.81
4338;-4.78;0.37;7.56;-0.10;0.30;-0.45;-0.18;-12.59;20.95
4346;-4.76;0.54;7.81;-0.10;0.30;-0.45;-6.47;-9.72;17.89
4355;-4.64;0.47;8.21;-0.10;0.30;-0.45;-12.12;-2.41;12.91
4364;-4.62;0.39;8.34;-0.10;0.30;-0.45;-15.63;4.73;10.22
4373;-4.72;0.14;8.37;-0.10;0.30;-0.45;-14.77;10.73;9.75
4382;-4.60;-0.11;8.13;-0.10;0.30;-0.45;-10.83;13.65;10.24
4390;-4.94;-0.08;7.62;-0.09;0.30;-0.45;-3.48;11.75;12.93
4399;-4.77;-0.23;7.12;-0.09;0.30;-0.45;6.12;6.04;16.77
4408;-4.73;-0.29;7.09;-0.09;0.30;-0.45;9.98;-0.16;20.23
4417;-4.65;-0.13;6.98;-0.09;0.30;-0.46;8.98;-8.41;21.31
4426;-4.33;0.14;7.04;-0.09;0.30;-0.46;5.77;-13.83;21.00
4435;-4.27;0.35;7.16;-0.09;0.30;-0.45;-1.01;-15.27;19.11
4443;-4.31;0.37;7.46;-0.09;0.30;-0.45;-8.34;-14.38;14.08
4452;-4.31;0.46;7.81;-0.09;0.30;-0.45;-15.55;-10.10;10.77
4461;-4.34;0.51;8.19;-0.09;0.30;-0.45;-20.41;-3.01;10.28
4470;-4.36;0.40;8.69;-0.09;0.30;-0.45;-22.92;4.74;7.40
4479;-4.36;0.60;8.87;-0.09;0.30;-0.45;-23.56;13.29;4.51
4487;-4.61;0.90;8.94;-0.10;0.29;-0.45;-20.58;18.24;2.00
4496;-4.84;0.88;8.92;-0.10;0.29;-0.45;-17.30;16.32;-2.97
4505;-4.66;1.01;8.56;-0.10;0.29;-0.45;-12.10;11.77;-4.87
4514;-4.80;1.04;8.32;-0.10;0.29;-0.44;-10.40;5.95;-1.29
4523;-4.81;0.98;8.13;-0.10;0.29;-0.44;-11.59;0.25;1.64
4532;-4.64;0.94;8.13;-0.10;0.29;-0.44;-13.58;-4.34;1.96
4540;-4.79;0.99;8.42;-0.10;0.28;-0.46;-12.06;-8.67;1.77
4549;-4.63;0.78;8.59;-0.10;0.28;-0.46;-10.01;-10.89;2.82
4558;-4.68;0.69;8.95;-0.10;0.28;-0.46;-9.64;-10.86;4.51
4567;-4.80;0.74;9.49;-0.10;0.29;-0.45;-7.97;-7.61;6.73
4576;-4.73;0.92;9.51;-0.10;0.29;-0.45;-3.86;-3.75;7.27
4585;-4.76;1.07;9.58;-0.10;0.29;-0.45;1.01;-1.30;7.37
4594;-4.87;1.24;9.49;-0.10;0.29;-0.45;3.46;-0.43;5.94
4602;-4.98;1.31;9.24;-0.10;0.29;-0.45;0.82;-3.46;4.73
4611;-4.57;1.21;9.26;-0.10;0.29;-0.45;-2.14;-5.01;4.32
4620;-4.50;1.08;9.25;-0.10;0.29;-0.45;-4.52;-5.48;3.55
4628;-4.51;1.14;9.24;-0.10;0.29;-0.45;-3.14;-6.44;2.96
4637;-4.59;1.05;9.07;-0.10;0.29;-0.45;-0.02;-7.62;2.35
4646;-4.68;0.96;9.08;-0.10;0.28;-0.45;3.87;-7.13;0.30
4655;-4.71;0.84;9.08;-0.10;0.28;-0.45;3.35;-5.84;-1.06
4664;-4.64;0.55;9.31;-0.10;0.28;-0.45;0.89;-2.93;-2.65
4673;-4.68;0.23;9.48;-0.10;0.28;-0.45;-1.16;0.30;-3.02
4681;-4.72;0.01;9.55;-0.10;0.28;-0.45;-3.83;4.26;-2.10
4690;-4.82;-0.30;9.62;-0.10;0.28;-0.45;-6.37;6.58;0.11
4699;-4.72;-0.15;9.49;-0.10;0.28;-0.45;-7.16;8.18;3.27
4708;-4.70;-0.00;9.33;-0.10;0.28;-0.45;-4.82;7.17;4.77
4717;-4.82;0.16;9.10;-0.10;0.28;-0.44;0.48;2.48;1.27
4726;-4.58;0.01;8.88;-0.10;0.28;-0.44;7.24;-1.21;-1.07
4734;-4.58;-0.33;8.67;-0.10;0.28;-0.44;11.81;-2.53;-0.47
4743;-4.70;-0.25;8.49;-0.10;0.29;-0.45;12.76;-2.43;2.06
4752;-4.71;-0.34;8.48;-0.10;0.29;-0.45;6.82;-2.69;1.92
4761;-4.53;-0.51;8.69;-0.10;0.29;-0.45;-3.84;-1.19;1.04
4770;-4.47;-0.53;9.14;-0.10;0.29;-0.45;-8.78;1.34;0.83
4778;-4.44;-0.64;9.59;-0.10;0.29;-0.45;-8.62;4.05;0.20
4787;-3.96;-0.90;9.67;-0.10;0.29;-0.45;-0.85;6.21;0.38
4796;-3.78;-1.04;9.52;-0.10;0.29;-0.44;9.02;9.69;3.32
4805;-3.64;-0.94;8.99;-0.10;0.29;-0.44;15.62;12.29;7.10
4813;-3.67;-0.68;8.36;-0.10;0.29;-0.44;19.22;13.76;8.51
4822;-3.71;-0.65;7.76;-0.09;0.29;-0.45;19.42;12.85;5.86
4831;-3.60;-0.66;7.44;-0.09;0.29;-0.45;15.60;9.50;2.06
4840;-3.63;-0.71;7.36;-0.09;0.29;-0.45;10.25;6.00;1.22
4849;-3.44;-0.88;7.42;-0.09;0.30;-0.44;2.35;2.85;1.93
4858;-3.33;-0.90;7.57;-0.09;0.30;-0.44;-2.56;0.96;3.73
4866;-3.29;-0.88;8.03;-0.09;0.30;-0.44;-5.08;0.25;5.89
4875;-3.03;-0.91;8.41;-0.09;0.28;-0.45;-3.67;0.54;10.32
4884;-2.90;-0.87;8.61;-0.09;0.28;-0.45;1.27;2.01;14.30
4893;-2.82;-0.75;8.48;-0.09;0.28;-0.45;7.44;4.02;17.95
4902;-2.95;-0.50;8.18;-0.09;0.30;-0.45;11.86;5.65;18.44
4911;-3.01;-0.20;7.62;-0.09;0.30;-0.45;13.45;5.81;17.00
4919;-3.35;-0.02;7.26;-0.09;0.30;-0.45;8.56;3.87;14.84
4928;-3.63;0.08;7.09;-0.10;0.29;-0.45;0.28;0.45;12.68
4937;-3.79;0.08;7.28;-0.10;0.29;-0.45;-5.95;-4.32;9.56
4946;-3.86;0.12;7.48;-0.10;0.29;-0.45;-10.22;-8.69;7.49
4955;-4.02;-0.04;7.79;-0.10;0.30;-0.45;-12.93;-11.01;6.92
4963;-4.18;-0.06;8.11;-0.10;0.30;-0.45;-13.04;-11.72;8.01
4972;-4.30;-0.06;8.44;-0.10;0.30;-0.45;-11.21;-11.20;10.05
4981;-4.69;0.01;8.48;-0.10;0.30;-0.45;-8.91;-10.84;12.07
4990;-4.72;0.21;8.36;-0.10;0.30;-0.45;-8.64;-12.44;14.14
4999;-4.87;0.38;8.33;-0.10;0.30;-0.44;-10.34;-14.19;14.00
5008;-4.93;0.44;8.42;-0.10;0.30;-0.44;-11.96;-15.81;11.48
5016;-5.03;0.45;8.68;-0.10;0.30;-0.44;-13.87;-16.81;8.40
5025;-5.24;0.48;8.77;-0.10;0.28;-0.45;-16.71;-16.03;6.20
5034;-5.21;0.39;9.02;-0.10;0.28;-0.45;-19.27;-14.30;4.97
5043;-5.21;0.27;9.23;-0.10;0.28;-0.45;-20.81;-12.42;4.30
5052;-5.16;0.18;9.23;-0.11;0.28;-0.46;-22.16;-11.15;5.34
5061;-5.08;0.25;9.25;-0.11;0.28;-0.46;-22.85;-11.35;6.00
5070;-4.89;0.18;9.24;-0.11;0.28;-0.46;-21.74;-12.15;6.62
5078;-4.78;0.06;9.34;-0.11;0.28;-0.44;-19.57;-12.69;7.43
5087;-4.48;0.07;9.51;-0.11;0.28;-0.44;-16.16;-11.48;11.16
5096;-4.34;0.07;9.41;-0.11;0.28;-0.44;-13.41;-10.87;9.72
5105;-4.20;0.05;9.25;-0.11;0.28;-0.44;-10.74;-8.88;10.11
5114;-4.23;0.16;9.17;-0.11;0.28;-0.44;-9.43;-7.53;9.25
5123;-4.05;0.10;9.03;-0.11;0.28;-0.44;-8.39;-7.11;7.26
5131;-4.25;0.08;8.90;-0.11;0.28;-0.45;-9.66;-5.42;5.44
5140;-4.40;0.15;8.86;-0.11;0.28;-0.45;-13.15;-5.43;3.90
5149;-4.24;0.01;8.83;-0.11;0.28;-0.45;-17.56;-5.56;3.21
5158;-4.25;-0.14;9.03;-0.11;0.28;-0.44;-20.03;-4.97;3.26
5167;-4.08;-0.19;9.32;-0.11;0.28;-0.44;-18.80;-4.37;4.25
5176;-3.85;-0.31;9.34;-0.11;0.28;-0.44;-14.31;-3.76;4.69
5185;-3.64;-0.39;9.43;-0.11;0.27;-0.44;-9.20;-3.92;6.33
5193;-3.77;-0.00;9.15;-0.11;0.27;-0.44;-7.63;-3.18;7.87
5202;-3.69;-0.05;8.90;-0.11;0.27;-0.44;-7.94;-3.05;7.45
5211;-3.66;-0.12;8.93;-0.12;0.26;-0.45;-10.44;-3.04;6.49
5220;-3.78;0.03;8.87;-0.12;0.26;-0.45;-14.09;-3.05;4.64
5229;-3.70;0.23;8.83;-0.12;0.26;-0.45;-17.73;-3.52;1.28
5238;-3.59;0.25;9.10;-0.11;0.26;-0.45;-20.25;-2.84;-0.85
5246;-3.30;0.45;9.45;-0.11;0.26;-0.45;-23.42;-1.82;-2.02
5255;-2.92;0.48;9.94;-0.11;0.26;-0.44;-24.31;0.50;-2.56
5264;-2.55;0.58;10.38;-0.11;0.26;-0.44;-20.07;3.66;-3.09
5273;-2.81;0.82;10.26;-0.11;0.26;-0.44;-11.82;7.84;-4.19
5282;-2.95;1.03;9.65;-0.12;0.26;-0.45;-7.18;10.65;-7.62
5291;-2.78;0.97;8.92;-0.12;0.26;-0.45;-13.20;12.82;-10.47
5299;-3.08;1.06;8.94;-0.12;0.26;-0.45;-21.21;11.32;-14.04
5308;-2.68;1.16;8.99;-0.11;0.25;-0.44;-30.56;10.49;-20.26
5317;-2.72;1.17;9.56;-0.11;0.25;-0.44;-37.77;14.32;-21.76
5326;-2.48;0.95;9.92;-0.11;0.25;-0.44;-42.75;17.16;-26.73
5335;-2.39;1.10;10.35;-0.11;0.25;-0.44;-44.50;18.92;-31.43
5344;-2.19;0.99;10.57;-0.11;0.25;-0.44;-42.92;22.38;-33.06
5352;-2.51;1.30;10.31;-0.11;0.25;-0.44;-35.31;23.51;-35.55
5361;-2.96;1.67;9.99;-0.10;0.24;-0.43;-31.08;23.84;-37.94
5370;-2.78;1.54;9.56;-0.10;0.24;-0.43;-29.88;25.80;-42.21
5379;-2.94;1.99;9.21;-0.10;0.24;-0.43;-35.26;28.32;-44.92
5388;-2.68;2.26;9.31;-0.09;0.22;-0.44;-34.65;25.48;-46.05
5397;-2.00;2.57;9.36;-0.09;0.22;-0.44;-31.36;18.17;-50.79
5405;-1.13;3.16;9.39;-0.09;0.22;-0.44;-23.95;8.99;-47.41
5414;0.06;4.22;9.83;-0.09;0.23;-0.44;-10.59;0.87;-40.58
5423;1.34;5.48;10.39;-0.09;0.23;-0.44;6.97;-6.34;-36.32
5432;2.51;7.26;10.45;-0.09;0.23;-0.44;19.12;-5.10;-42.07
5441;3.06;9.02;9.58;-0.08;0.23;-0.43;12.35;2.37;-53.66
5450;2.78;10.59;7.96;-0.08;0.23;-0.43;1.49;19.10;-59.50
5458;1.79;11.56;6.04;-0.08;0.23;-0.43;19.03;13.55;-73.04
5467;-0.51;12.52;3.02;-0.08;0.23;-0.43;45.21;-4.09;-98.74
5476;-3.60;13.93;-0.45;-0.08;0.23;-0.43;90.35;-39.53;-118.81
5485;-7.44;14.46;-3.92;-0.08;0.23;-0.43;141.18;-82.96;-142.01
5494;-11.54;13.04;-6.03;-0.07;0.23;-0.45;182.22;-123.49;-184.85
5502;-16.34;9.24;-7.56;-0.07;0.23;-0.45;171.80;-160.13;-240.43
5511;-19.60;4.22;-7.91;-0.07;0.25;-0.45;85.83;-197.65;-286.53
5520;-19.60;-1.90;-6.20;-0.07;0.25;-0.45;-26.71;-231.65;-286.72
5529;-19.60;-9.81;-1.30;-0.07;0.25;-0.45;-168.48;-270.16;-286.72
5538;-19.60;-19.60;9.07;-0.12;0.23;-0.42;-286.72;-258.19;-286.72
5547;-19.60;-19.60;19.60;-0.12;0.23;-0.42;-286.72;-139.54;-286.72
5556;-19.60;-19.60;19.60;-0.12;0.23;-0.42;-286.72;-4.55;-146.74
5565;-16.83;-19.60;19.60;-0.12;0.14;-0.36;-159.85;117.73;161.42
5574;-18.04;-4.13;18.81;-0.12;0.14;-0.36;286.58;134.58;286.68
5583;-15.84;19.60;9.39;-0.12;0.14;-0.36;286.68;123.97;286.68
5591;-11.02;19.60;3.74;-0.12;0.21;-0.42;286.68;108.68;286.68
5600;-3.79;19.60;-1.26;-0.12;0.21;-0.42;257.55;101.06;182.99
5609;-0.34;19.60;-5.31;-0.12;0.21;-0.42;-95.95;82.54;-11.73
5618;-1.35;16.46;-5.79;-0.09;0.23;-0.44;-218.23;22.21;-139.31
5627;-5.51;6.17;-1.94;-0.09;0.23;-0.44;-188.62;-54.64;-159.33
5636;-8.85;-0.50;5.48;-0.09;0.23;-0.44;-102.70;-86.99;-87.14
5645;-10.51;-3.20;12.58;-0.11;0.22;-0.42;-37.72;-57.16;-17.77
5654;-9.56;-2.88;15.55;-0.11;0.22;-0.42;0.87;-5.48;21.31
5663;-8.44;-0.49;12.74;-0.11;0.22;-0.42;24.27;41.66;45.06
5672;-7.74;1.83;8.79;-0.12;0.21;-0.43;49.54;69.95;67.79
5680;-6.43;4.62;5.62;-0.12;0.21;-0.43;63.23;64.99;75.00
5689;-5.54;7.21;3.37;-0.12;0.21;-0.43;50.93;48.13;62.95
5698;-4.96;7.96;3.13;-0.10;0.21;-0.43;15.60;24.26;31.55
5707;-4.64;7.54;4.11;-0.10;0.21;-0.43;-17.05;6.57;4.37
5716;-4.62;5.51;5.94;-0.10;0.25;-0.42;-29.23;-6.89;-17.29
5724;-4.93;3.34;7.24;-0.10;0.22;-0.42;-27.63;-12.34;-22.83
5733;-4.48;1.47;8.21;-0.10;0.22;-0.42;-17.75;-10.65;-18.84
5742;-4.49;0.57;8.67;-0.10;0.22;-0.44;-12.20;-6.12;-13.35
5751;-4.56;0.43;8.75;-0.10;0.22;-0.44;-17.01;-1.50;-8.63
5760;-4.60;0.74;8.80;-0.10;0.22;-0.44;-22.79;3.25;-5.82
5769;-4.68;1.67;8.54;-0.10;0.22;-0.42;-22.22;5.39;-2.78
5778;-4.71;2.37;8.18;-0.10;0.22;-0.42;-15.45;6.09;-0.88
5786;-4.95;2.75;7.69;-0.10;0.22;-0.42;-8.70;3.85;-1.66
5795;-4.93;2.80;7.62;-0.10;0.21;-0.43;-8.70;-0.40;-2.73
5804;-4.94;2.66;7.82;-0.10;0.21;-0.43;-10.71;-2.79;-5.60
5813;-5.32;2.47;8.23;-0.10;0.21;-0.43;-15.05;-2.51;-9.17
5822;-5.77;2.34;8.60;-0.11;0.21;-0.44;-17.74;-1.47;-10.36
5831;-5.93;2.29;8.91;-0.11;0.21;-0.44;-13.92;1.51;-8.04
5839;-6.14;2.10;8.88;-0.11;0.21;-0.44;-3.45;6.93;-3.18
5848;-5.96;2.10;8.44;-0.09;0.21;-0.43;7.79;12.50;2.46
5857;-5.98;1.90;7.62;-0.09;0.21;-0.43;17.15;16.54;5.84
5866;-5.86;1.56;6.49;-0.09;0.21;-0.43;18.61;14.59;6.09
5875;-5.69;1.26;5.90;-0.10;0.21;-0.43;14.72;9.61;6.20
5884;-5.80;1.40;6.06;-0.10;0.21;-0.43;8.19;5.28;4.98
5892;-6.00;1.59;6.37;-0.10;0.21;-0.43;-0.27;2.91;1.02
5901;-6.09;1.68;6.69;-0.09;0.22;-0.42;-10.07;1.50;-3.20
5910;-5.85;1.74;6.85;-0.09;0.22;-0.42;-11.44;1.58;-2.07
5919;-5.71;1.84;6.81;-0.09;0.22;-0.42;1.30;0.76;2.51
5928;-5.63;1.87;6.83;-0.10;0.21;-0.42;10.76;0.42;7.09
5936;-5.40;2.02;6.61;-0.10;0.21;-0.42;13.36;-0.46;10.53
5945;-5.22;2.00;6.55;-0.10;0.21;-0.42;13.20;-1.63;9.42
5954;-5.41;2.15;6.69;-0.09;0.22;-0.42;5.19;-2.59;6.76
5963;-5.53;2.28;7.09;-0.09;0.22;-0.42;-4.37;-3.15;1.94
5972;-5.98;2.13;7.55;-0.09;0.22;-0.43;-12.09;-3.67;-2.28
5980;-6.06;1.88;7.75;-0.09;0.21;-0.43;-11.19;-4.54;-2.19
5989;-5.96;1.76;8.06;-0.09;0.21;-0.43;-2.90;-3.81;2.22
5998;-5.71;2.04;8.02;-0.10;0.22;-0.43;8.77;-1.72;7.97
6007;-5.67;2.23;7.77;-0.10;0.22;-0.43;18.18;-0.10;12.17
6016;-5.38;2.31;7.56;-0.10;0.22;-0.43;23.38;-1.16;13.61
6025;-5.10;2.41;7.36;-0.09;0.22;-0.43;26.99;-2.33;14.25
6033;-5.19;2.46;7.27;-0.09;0.22;-0.43;24.20;-3.70;11.31
6042;-5.43;2.66;7.29;-0.09;0.22;-0.43;13.23;-4.63;5.36
6051;-5.54;2.47;7.58;-0.10;0.22;-0.43;0.06;-5.36;-3.92
6060;-5.62;2.28;7.86;-0.10;0.22;-0.43;-9.30;-3.75;-5.66
6069;-5.57;2.19;8.04;-0.10;0.22;-0.43;-8.86;-1.48;-4.72
6078;-5.57;2.16;8.01;-0.10;0.22;-0.44;-0.50;0.68;0.87
6087;-5.75;2.14;7.97;-0.10;0.22;-0.44;7.38;2.04;4.85
6095;-5.70;2.21;7.88;-0.10;0.22;-0.44;14.41;1.81;7.98
6104;-5.72;2.16;7.64;-0.10;0.23;-0.43;18.84;0.45;7.98
6113;-5.96;2.11;7.47;-0.10;0.23;-0.43;17.21;-1.14;5.02
6122;-6.12;1.86;7.49;-0.10;0.23;-0.43;6.72;-3.99;0.40
6131;-6.20;1.73;7.73;-0.10;0.23;-0.45;-1.47;-4.43;-3.49
6140;-6.23;1.55;7.83;-0.10;0.23;-0.45;-5.59;-2.95;-4.32
6148;-6.35;1.45;7.90;-0.10;0.23;-0.45;-1.93;-2.47;-1.67
6157;-6.10;1.66;7.80;-0.11;0.23;-0.43;7.22;-1.61;3.59
6166;-6.01;1.74;7.70;-0.11;0.23;-0.43;14.52;0.04;8.05
6175;-5.97;1.80;7.58;-0.11;0.23;-0.43;15.78;1.72;9.52
6184;-5.95;1.79;7.44;-0.10;0.23;-0.44;16.33;1.49;9.41
6193;-5.85;1.64;7.34;-0.10;0.23;-0.44;15.71;1.19;7.59
6201;-5.95;1.58;7.46;-0.10;0.23;-0.44;8.63;2.59;6.08
6210;-5.88;1.56;7.35;-0.11;0.23;-0.43;2.73;3.43;3.88
6219;-5.89;1.50;7.30;-0.11;0.23;-0.43;-1.05;4.19;1.76
6228;-5.95;1.43;7.35;-0.11;0.23;-0.42;-3.88;4.30;2.52
6237;-5.86;1.52;7.44;-0.10;0.23;-0.42;-1.95;3.27;4.89
6246;-5.77;1.80;7.42;-0.10;0.23;-0.42;4.28;1.97;10.02
6254;-5.69;2.07;7.52;-0.11;0.24;-0.44;14.32;0.38;14.49
6263;-5.68;2.29;7.45;-0.11;0.24;-0.44;21.81;-1.23;17.11
6272;-5.71;2.35;7.63;-0.11;0.24;-0.44;25.99;-2.80;17.36
6281;-5.71;2.14;7.54;-0.11;0.25;-0.44;25.53;-2.69;15.83
6290;-5.90;1.83;7.34;-0.11;0.25;-0.44;20.37;-2.21;13.41
6299;-5.92;1.45;7.26;-0.11;0.25;-0.44;11.86;-0.38;10.33
6308;-5.91;1.17;7.17;-0.11;0.25;-0.44;-0.92;1.23;8.48
6316;-5.82;1.05;7.19;-0.11;0.25;-0.44;-7.74;2.46;8.40
6325;-5.85;1.06;7.15;-0.11;0.25;-0.44;-6.31;3.00;12.57
6334;-6.02;1.23;7.32;-0.11;0.26;-0.43;2.51;1.78;19.64
6343;-6.01;1.75;7.44;-0.11;0.26;-0.43;14.47;-0.25;26.57
6352;-6.23;2.16;7.50;-0.11;0.26;-0.43;24.20;-0.91;30.96
6361;-6.34;2.34;7.64;-0.12;0.25;-0.45;26.05;-1.92;29.65
6369;-6.49;2.07;7.83;-0.12;0.25;-0.45;20.90;0.27;26.26
6378;-6.74;1.65;7.75;-0.12;0.25;-0.45;12.23;4.24;21.06
6387;-7.11;1.09;7.80;-0.12;0.26;-0.45;-1.07;10.47;16.19
6396;-7.18;0.47;7.68;-0.12;0.26;-0.45;-11.61;14.58;10.10
6405;-7.41;-0.01;7.70;-0.12;0.26;-0.45;-19.31;19.50;8.72
6414;-7.66;-0.31;7.72;-0.12;0.26;-0.44;-21.03;23.05;11.51
6423;-7.86;-0.44;7.57;-0.12;0.26;-0.44;-16.52;23.90;18.49
6431;-7.65;-0.35;7.36;-0.12;0.26;-0.44;-8.34;23.43;30.85
6440;-7.47;-0.06;7.38;-0.11;0.26;-0.44;2.23;22.00;41.38
6449;-7.11;0.73;7.23;-0.11;0.26;-0.44;16.07;20.42;50.98
6458;-7.16;1.66;7.09;-0.11;0.26;-0.44;30.65;14.85;52.05
6467;-6.78;1.88;7.20;-0.11;0.27;-0.44;38.16;11.86;47.25
6476;-6.60;1.99;7.24;-0.11;0.27;-0.44;32.69;14.27;38.42
6485;-6.70;2.12;7.09;-0.11;0.28;-0.45;18.92;18.67;26.27
6493;-6.67;1.67;7.10;-0.11;0.28;-0.45;-0.50;21.72;10.81
6502;-6.42;1.27;7.04;-0.11;0.28;-0.45;-14.96;24.88;2.40
6511;-6.47;0.90;6.96;-0.11;0.29;-0.45;-25.51;27.55;-0.40
6520;-6.44;0.57;6.77;-0.11;0.29;-0.45;-29.49;25.39;-1.00
6529;-6.46;0.44;6.77;-0.11;0.29;-0.45;-25.80;22.14;3.66
6538;-6.55;0.29;6.79;-0.10;0.27;-0.43;-16.35;17.43;10.91
6546;-6.61;0.52;6.74;-0.10;0.27;-0.43;-6.62;8.97;16.32
6555;-6.39;0.54;6.94;-0.10;0.27;-0.43;3.42;4.73;22.20
6564;-6.17;0.75;7.31;-0.10;0.26;-0.45;9.23;2.78;25.59
6573;-6.05;0.98;7.66;-0.10;0.26;-0.45;11.06;3.12;25.24
6582;-6.00;1.11;7.72;-0.10;0.26;-0.45;9.01;4.82;21.39
6590;-6.00;1.08;8.04;-0.10;0.28;-0.45;3.95;5.43;17.81
6599;-5.89;1.16;8.11;-0.10;0.28;-0.45;-0.33;7.94;14.73
6608;-6.03;1.18;8.06;-0.10;0.28;-0.45;-2.73;11.87;11.15
6617;-5.96;1.12;7.99;-0.11;0.28;-0.44;-2.77;16.07;8.01
6626;-6.22;1.11;7.81;-0.11;0.28;-0.44;-0.28;16.72;6.01
6635;-6.08;0.81;7.69;-0.11;0.28;-0.44;4.03;15.68;7.95
6643;-5.87;0.45;7.50;-0.11;0.29;-0.46;5.53;14.60;13.72
6652;-5.56;0.17;7.78;-0.11;0.29;-0.46;6.62;15.02;19.69
6661;-5.48;0.23;7.84;-0.11;0.29;-0.46;7.81;15.78;23.01
6670;-5.45;0.47;8.01;-0.10;0.28;-0.46;8.76;16.09;24.05
6679;-5.45;0.42;8.13;-0.10;0.28;-0.46;10.74;17.92;21.10
6688;-5.60;0.63;8.02;-0.10;0.28;-0.46;13.15;20.39;18.37
6696;-5.89;0.57;7.88;-0.11;0.29;-0.47;11.79;18.70;19.52
6705;-5.67;0.44;7.59;-0.11;0.29;-0.47;10.22;14.66;20.20
6714;-5.50;0.56;7.49;-0.11;0.29;-0.47;9.18;12.71;21.17
6723;-5.28;0.41;7.59;-0.10;0.30;-0.46;9.59;11.25;21.20
6732;-4.82;0.08;7.70;-0.10;0.30;-0.46;8.98;12.45;24.11
6741;-4.69;-0.16;7.79;-0.10;0.30;-0.45;6.35;12.97;25.59
6749;-4.45;-0.02;7.87;-0.10;0.30;-0.45;6.91;12.18;26.93
6758;-4.59;0.11;8.08;-0.10;0.30;-0.45;9.08;10.45;27.14
6767;-4.55;0.34;8.29;-0.11;0.31;-0.47;9.11;6.45;22.51
6776;-4.52;0.75;8.53;-0.11;0.31;-0.47;7.86;5.53;17.05
6785;-4.68;0.81;8.46;-0.11;0.31;-0.47;2.31;3.90;16.82
6794;-4.56;0.73;8.45;-0.11;0.31;-0.45;-5.26;4.59;14.78
6802;-4.56;0.63;8.65;-0.11;0.31;-0.45;-10.31;6.29;11.93
6811;-4.67;0.33;8.58;-0.11;0.31;-0.45;-10.15;7.47;11.15
6820;-4.62;-0.06;8.55;-0.11;0.31;-0.46;-3.77;6.01;12.94
6829;-4.50;-0.46;8.60;-0.11;0.31;-0.46;5.63;2.97;16.49
6838;-4.48;-0.50;8.40;-0.11;0.31;-0.46;13.32;0.45;20.97
6847;-4.33;-0.52;8.08;-0.10;0.31;-0.45;19.42;-3.01;25.84
6855;-4.21;-0.50;7.92;-0.10;0.31;-0.45;21.29;-5.21;27.21
6864;-4.31;-0.41;7.67;-0.10;0.31;-0.45;18.68;-6.87;26.08
6873;-4.32;-0.35;7.83;-0.11;0.31;-0.47;14.34;-7.45;24.29
6882;-4.31;-0.27;7.68;-0.11;0.31;-0.47;9.33;-6.65;21.42
6891;-4.23;-0.14;7.70;-0.11;0.31;-0.47;4.68;-5.02;17.15
6899;-4.16;-0.13;7.75;-0.11;0.31;-0.46;0.23;-3.54;12.38
6908;-4.12;-0.21;8.15;-0.11;0.31;-0.46;-6.80;-1.61;6.76
6917;-4.12;-0.33;8.54;-0.11;0.31;-0.46;-16.70;0.43;3.28
6926;-4.29;-0.17;8.93;-0.11;0.32;-0.47;-21.56;2.67;-0.32
6935;-4.35;-0.25;9.17;-0.11;0.32;-0.47;-24.04;6.02;-4.98
6944;-4.41;-0.36;9.31;-0.11;0.32;-0.47;-24.10;9.37;-8.10
6952;-4.68;-0.55;9.30;-0.11;0.31;-0.47;-21.76;12.32;-6.94
6961;-4.82;-0.61;9.03;-0.11;0.31;-0.47;-15.56;12.31;-3.65
6970;-4.88;-0.60;8.86;-0.11;0.31;-0.47;-6.76;9.28;0.01
6979;-4.94;-0.49;8.75;-0.11;0.31;-0.45;1.06;3.74;3.52
6988;-4.90;-0.35;8.80;-0.11;0.31;-0.45;5.67;-2.50;5.73
6996;-4.88;-0.31;9.05;-0.11;0.31;-0.45;6.55;-5.80;5.40
7005;-4.80;-0.25;9.47;-0.10;0.31;-0.47;4.24;-4.62;5.09
7014;-4.88;-0.25;9.86;-0.10;0.31;-0.47;1.42;-1.16;4.80
7023;-4.94;-0.08;9.85;-0.11;0.30;-0.45;0.67;4.08;2.73
7032;-4.69;-0.08;9.77;-0.11;0.30;-0.45;1.29;8.31;0.35
7040;-4.81;-0.22;9.70;-0.11;0.30;-0.45;2.61;13.13;0.35
7049;-5.04;-0.22;9.32;-0.10;0.31;-0.45;5.27;14.57;0.78
7058;-4.88;-0.36;9.01;-0.10;0.31;-0.45;8.05;13.82;2.84
7067;-5.11;-0.58;8.75;-0.10;0.31;-0.45;10.99;10.51;6.30
7075;-5.06;-0.72;8.50;-0.10;0.31;-0.46;13.44;6.26;10.18
7084;-4.88;-0.89;8.40;-0.10;0.31;-0.46;12.55;2.01;13.62
7093;-4.80;-0.71;8.37;-0.10;0.31;-0.46;8.63;-1.21;15.64
7102;-4.73;-0.40;8.47;-0.10;0.31;-0.46;2.71;-3.52;13.80
7111;-4.34;-0.33;8.79;-0.10;0.31;-0.46;-3.25;-4.37;10.42
7119;-4.41;-0.19;9.08;-0.10;0.31;-0.46;-10.44;-1.51;7.11
7128;-4.50;0.03;9.38;-0.09;0.31;-0.46;-16.75;1.20;4.55
7137;-4.44;0.09;9.26;-0.09;0.31;-0.46;-19.40;3.18;3.47
7146;-4.30;0.13;9.27;-0.09;0.31;-0.46;-19.91;6.71;4.05
7155;-4.12;0.16;9.31;-0.10;0.31;-0.45;-17.11;5.92;3.92
7164;-4.15;0.23;9.13;-0.10;0.31;-0.45;-14.32;6.25;4.09
7172;-4.03;0.23;9.04;-0.10;0.31;-0.45;-11.74;4.77;4.20
7181;-4.09;0.28;9.04;-0.10;0.31;-0.46;-8.92;3.41;5.48
7190;-3.99;0.25;8.88;-0.10;0.31;-0.46;-6.62;2.45;6.53
7199;-3.91;0.21;8.84;-0.10;0.31;-0.46;-4.88;3.21;7.03
7207;-3.93;0.30;8.69;-0.10;0.31;-0.45;-2.64;3.69;6.76
7216;-3.71;0.31;8.45;-0.10;0.31;-0.45;0.21;4.24;4.18
7225;-3.69;0.22;8.11;-0.10;0.31;-0.45;1.68;4.66;1.32
7234;-3.51;-0.03;8.04;-0.10;0.30;-0.45;0.31;4.37;-0.65
7243;-3.34;0.00;8.07;-0.10;0.30;-0.45;-3.30;5.54;-1.03
7251;-3.27;-0.10;8.28;-0.10;0.30;-0.45;-5.47;6.40;-1.23
7260;-3.25;-0.23;8.62;-0.10;0.30;-0.45;-4.45;8.09;-0.68
7269;-3.28;-0.25;8.78;-0.10;0.30;-0.45;-0.45;9.04;-0.11
7278;-3.36;-0.25;8.84;-0.10;0.30;-0.45;5.57;11.09;1.17
7287;-3.63;-0.12;8.81;-0.10;0.30;-0.44;7.23;11.61;2.86
7296;-3.58;-0.16;8.55;-0.10;0.30;-0.44;7.32;12.15;2.99
7304;-3.64;-0.17;8.41;-0.10;0.31;-0.46;6.24;12.24;2.88
7313;-3.52;-0.28;8.25;-0.10;0.31;-0.46;5.67;11.91;2.65
7322;-3.52;-0.20;8.10;-0.10;0.31;-0.46;5.06;11.68;2.66
7331;-3.45;-0.11;8.16;-0.09;0.31;-0.46;4.24;10.59;1.78
7340;-3.40;-0.09;8.18;-0.09;0.31;-0.46;2.66;9.54;-0.07
7348;-3.42;0.02;8.44;-0.09;0.31;-0.46;-0.78;10.51;-1.50
7357;-3.51;0.09;8.52;-0.09;0.30;-0.45;-4.90;11.58;-2.89
7366;-3.50;0.12;8.81;-0.09;0.30;-0.45;-6.47;13.02;-3.69
7375;-3.56;0.06;8.79;-0.09;0.30;-0.45;-5.15;13.24;-3.65
7384;-3.75;0.09;8.76;-0.09;0.31;-0.44;-2.97;13.32;-3.53
7393;-3.81;0.11;8.66;-0.09;0.31;-0.44;-0.74;12.46;-3.21
7401;-3.99;0.13;8.68;-0.09;0.31;-0.44;-0.90;10.75;-3.88
7410;-4.17;0.15;8.56;-0.09;0.31;-0.45;-2.64;7.87;-4.54
7419;-4.32;0.14;8.61;-0.09;0.31;-0.45;-6.28;4.93;-3.82
7428;-4.40;0.13;8.69;-0.09;0.31;-0.45;-8.73;1.66;-3.51
7437;-4.45;0.01;8.87;-0.08;0.31;-0.45;-7.66;-0.70;-3.49
7445;-4.51;-0.11;8.94;-0.08;0.31;-0.45;-6.15;-2.26;-3.21
7454;-4.36;-0.04;9.13;-0.08;0.31;-0.45;-2.25;-2.35;-3.01
7463;-4.25;-0.10;9.16;-0.08;0.32;-0.45;1.47;-0.16;-2.77
7472;-4.20;-0.05;9.07;-0.08;0.32;-0.45;2.76;2.52;-3.53
7481;-4.08;-0.03;8.87;-0.08;0.32;-0.45;1.40;4.52;-3.91
7489;-3.96;-0.02;8.65;-0.08;0.31;-0.45;-0.43;5.70;-4.34
7498;-3.85;-0.11;8.68;-0.08;0.31;-0.45;-2.96;6.50;-4.85
7507;-3.70;-0.12;8.65;-0.08;0.31;-0.45;-5.07;7.24;-4.80
7516;-3.75;-0.06;8.59;-0.08;0.31;-0.46;-5.82;7.75;-4.78
7525;-3.82;0.02;8.53;-0.08;0.31;-0.46;-5.03;7.43;-4.64
7533;-3.82;0.00;8.32;-0.08;0.31;-0.46;-3.88;4.61;-4.66
7542;-3.69;-0.04;8.30;-0.08;0.31;-0.45;-2.76;2.69;-4.36
7551;-3.58;-0.13;8.51;-0.08;0.31;-0.45;-1.73;-0.25;-4.24
7560;-3.30;-0.25;8.49;-0.08;0.31;-0.45;-0.16;-3.04;-3.32
7569;-3.15;-0.34;8.75;-0.07;0.30;-0.46;0.56;-4.94;-2.92
7577;-3.05;-0.40;8.98;-0.07;0.30;-0.46;1.25;-5.14;-3.33
7586;-3.05;-0.55;9.01;-0.07;0.30;-0.45;2.82;-4.37;-3.04
7595;-2.91;-0.58;8.97;-0.08;0.30;-0.45;3.39;-2.74;-2.98
7604;-2.99;-0.51;8.83;-0.08;0.30;-0.45;0.91;-1.33;-3.87
7613;-2.94;-0.50;8.77;-0.08;0.30;-0.45;-3.34;-0.89;-5.26
7621;-2.93;-0.47;8.88;-0.08;0.30;-0.45;-7.77;-0.20;-5.54
7630;-2.93;-0.47;9.24;-0.08;0.30;-0.45;-10.29;-0.48;-6.12
7639;-2.73;-0.56;9.42;-0.08;0.30;-0.46;-8.64;-0.81;-6.64
7648;-2.95;-0.55;9.69;-0.08;0.30;-0.46;-6.53;0.78;-6.35
7657;-2.96;-0.42;9.53;-0.08;0.30;-0.46;-3.45;2.28;-5.90
7665;-2.66;-0.37;9.44;-0.08;0.30;-0.45;-2.62;2.20;-6.46
7674;-2.51;-0.21;9.62;-0.08;0.30;-0.45;-5.79;1.25;-9.79
7683;-2.37;0.02;9.52;-0.08;0.30;-0.45;-8.20;3.23;-10.73
7692;-2.39;0.02;9.55;-0.07;0.29;-0.45;-12.71;6.09;-13.85
7701;-2.20;-0.04;9.43;-0.07;0.29;-0.45;-17.71;7.20;-17.20
7710;-2.20;-0.28;9.47;-0.07;0.29;-0.45;-21.25;10.13;-18.46
7719;-2.26;-0.49;9.37;-0.07;0.30;-0.45;-21.88;12.31;-16.44
7727;-2.33;-0.72;9.12;-0.07;0.30;-0.45;-20.17;12.70;-11.57
7736;-2.79;-0.56;8.80;-0.07;0.30;-0.45;-15.33;9.09;-7.87
7745;-2.98;-0.28;8.34;-0.07;0.29;-0.44;-9.05;3.82;-7.71
7754;-2.86;-0.10;8.21;-0.07;0.29;-0.44;-3.86;-1.97;-12.24
7763;-2.93;-0.14;8.30;-0.07;0.29;-0.44;-1.28;-2.49;-17.01
7772;-3.22;-0.33;8.35;-0.07;0.29;-0.44;-7.68;0.36;-16.39
7780;-3.22;-0.23;8.16;-0.07;0.29;-0.44;-9.93;0.71;-18.89
7789;-3.31;-0.14;8.18;-0.07;0.29;-0.44;-16.84;2.68;-20.83
7798;-3.34;-0.17;8.48;-0.07;0.29;-0.45;-20.61;4.18;-21.57
7807;-3.31;-0.25;8.71;-0.07;0.29;-0.45;-22.12;5.25;-21.93
7816;-3.25;-0.39;8.89;-0.07;0.29;-0.45;-21.16;8.27;-18.98
7825;-3.31;-0.43;9.00;-0.07;0.28;-0.44;-17.51;13.32;-15.64
7834;-3.71;-0.13;9.11;-0.07;0.28;-0.44;-17.40;17.11;-11.75
7842;-3.47;0.49;8.99;-0.07;0.28;-0.45;-19.26;18.83;-10.03
7851;-3.26;0.67;9.16;-0.07;0.27;-0.45;-19.71;17.89;-14.66
7860;-2.95;0.91;9.49;-0.07;0.27;-0.45;-19.31;12.48;-18.88
7869;-2.42;1.27;9.95;-0.07;0.28;-0.44;-15.60;5.84;-18.49
7877;-1.69;1.90;10.27;-0.07;0.28;-0.44;-1.80;-0.36;-12.88
7886;-1.27;2.68;10.84;-0.07;0.28;-0.44;16.69;-6.14;-7.18
7895;-0.24;3.92;10.78;-0.07;0.28;-0.44;38.94;-14.34;-2.35
7904;0.08;4.89;11.26;-0.07;0.28;-0.44;66.68;-17.18;-1.66
7913;1.28;6.50;9.93;-0.07;0.28;-0.44;80.18;-11.53;-2.57
7922;2.24;8.48;10.62;-0.07;0.30;-0.46;81.03;3.67;-0.30
7930;2.32;10.09;9.36;-0.07;0.30;-0.46;73.29;18.33;-12.91
7939;1.81;12.58;7.30;-0.07;0.30;-0.46;60.95;24.91;-28.17
7948;0.49;14.69;5.51;-0.07;0.31;-0.45;71.51;24.55;-49.88
7957;-1.59;16.40;3.20;-0.07;0.31;-0.45;99.05;8.79;-98.36
7966;-4.68;17.11;-0.25;-0.07;0.31;-0.45;120.86;-12.84;-181.28
7975;-10.88;15.95;-4.15;-0.05;0.31;-0.46;107.40;-53.96;-286.72
7984;-17.80;12.31;-7.51;-0.05;0.31;-0.46;34.48;-107.65;-286.72
7993;-19.60;4.93;-9.15;-0.05;0.31;-0.46;-76.38;-189.05;-286.72
8002;-19.60;-4.53;-5.78;-0.06;0.31;-0.45;-230.53;-286.52;-286.72
8010;-19.60;-18.32;4.36;-0.06;0.31;-0.45;-286.72;-286.72;-286.72
8019;-19.60;-19.60;19.60;-0.06;0.31;-0.45;-286.72;-205.46;-286.72
8028;-19.60;-19.60;19.60;-0.10;0.23;-0.41;-286.72;-102.01;-286.72
8037;-18.12;-19.60;19.60;-0.10;0.23;-0.41;-286.72;46.73;-6.45
8046;-12.04;-15.32;19.60;-0.10;0.23;-0.41;-30.30;156.68;286.68
8055;-15.02;-0.19;19.60;-0.08;0.12;-0.34;286.68;114.58;286.68
8064;-16.79;19.58;10.46;-0.08;0.12;-0.34;286.68;62.65;286.68
8072;-13.56;19.60;0.84;-0.08;0.12;-0.34;286.68;69.26;286.68
8081;-3.51;19.60;-7.22;-0.09;0.25;-0.44;286.28;67.46;267.08
8090;2.70;19.60;-8.62;-0.09;0.25;-0.44;-119.91;50.08;55.76
8099;3.04;19.60;-5.27;-0.09;0.25;-0.44;-285.34;14.38;-95.51
8108;0.18;12.61;-0.97;-0.08;0.25;-0.44;-255.34;-31.33;-147.90
8116;-4.65;5.91;3.61;-0.08;0.25;-0.44;-127.02;-78.45;-127.61
8125;-7.60;1.36;9.93;-0.10;0.23;-0.43;-44.99;-80.25;-68.07
8134;-7.42;0.13;13.76;-0.10;0.23;-0.43;-15.97;-38.52;-22.39
8143;-6.60;-0.20;13.83;-0.10;0.23;-0.43;-12.22;-0.02;-18.47
8152;-6.04;0.33;10.56;-0.10;0.22;-0.42;-1.47;39.30;-4.94
8161;-5.93;1.38;7.83;-0.10;0.22;-0.42;15.89;57.44;23.00
8170;-5.88;2.91;5.76;-0.10;0.22;-0.42;38.09;49.20;32.96
8178;-5.37;4.10;4.42;-0.08;0.23;-0.42;44.76;30.45;28.85
8187;-4.76;4.22;4.39;-0.08;0.23;-0.42;24.11;14.65;14.21
8196;-4.45;4.01;5.22;-0.08;0.23;-0.42;-11.52;2.46;-0.76
8205;-4.10;3.18;6.52;-0.09;0.23;-0.43;-31.86;-4.44;-13.15
8214;-4.02;2.04;7.84;-0.09;0.23;-0.43;-31.17;-8.33;-13.19
8222;-4.04;1.31;8.78;-0.09;0.23;-0.43;-15.17;-8.34;-6.89
8231;-4.43;0.88;9.28;-0.10;0.23;-0.43;-4.72;-7.21;-2.39
8240;-4.40;0.79;9.17;-0.10;0.23;-0.43;-2.06;-3.29;-1.30
8249;-4.71;0.87;8.62;-0.10;0.23;-0.43;-6.56;2.86;-0.05
8258;-5.02;1.21;8.18;-0.10;0.23;-0.44;-13.06;5.99;1.28
8266;-5.22;1.66;7.81;-0.10;0.23;-0.44;-12.34;5.70;2.07
8275;-5.30;2.20;7.62;-0.10;0.23;-0.44;-4.98;4.23;6.14
8284;-5.27;2.58;7.46;-0.10;0.23;-0.43;8.04;1.65;10.67
8293;-5.34;2.85;7.44;-0.10;0.23;-0.43;14.84;-0.61;12.48
8302;-5.43;2.88;7.42;-0.10;0.23;-0.43;17.02;-2.79;11.68
8310;-5.53;2.63;7.46;-0.09;0.23;-0.42;11.96;-0.14;6.84
8319;-5.79;2.39;7.55;-0.09;0.23;-0.42;0.31;1.00;3.23
8328;-6.01;2.01;7.69;-0.09;0.23;-0.42;-8.42;4.83;0.74
8337;-6.22;1.74;7.66;-0.10;0.24;-0.42;-10.35;8.96;2.72
8346;-6.03;1.91;7.56;-0.10;0.24;-0.42;-3.57;12.38;9.12
8355;-6.01;2.31;7.19;-0.10;0.24;-0.42;10.77;12.66;15.01
8363;-5.87;2.51;6.77;-0.10;0.24;-0.43;22.28;7.11;18.86
8372;-5.60;2.74;6.48;-0.10;0.24;-0.43;28.35;3.39;19.47
8381;-5.55;3.04;6.30;-0.10;0.24;-0.44;26.22;-0.52;14.79
8390;-5.37;2.95;6.55;-0.09;0.24;-0.44;13.91;-2.84;5.91
8399;-5.57;2.76;6.89;-0.09;0.24;-0.44;-1.79;-3.46;-3.53
8407;-5.61;2.44;7.39;-0.10;0.24;-0.42;-14.52;-3.84;-8.36
8416;-5.66;2.19;7.98;-0.10;0.24;-0.42;-17.04;-3.15;-8.39
8425;-5.69;2.10;8.24;-0.10;0.24;-0.42;-13.13;-1.17;-3.73
8434;-5.59;2.13;8.29;-0.10;0.24;-0.42;-2.99;0.25;0.83
8443;-5.47;2.20;8.17;-0.10;0.24;-0.42;6.20;1.20;5.00
8451;-5.39;2.20;7.97;-0.10;0.24;-0.42;11.66;0.42;7.68
8460;-5.41;2.35;7.75;-0.09;0.24;-0.43;14.35;-3.42;6.82
8469;-5.39;2.36;7.88;-0.09;0.24;-0.43;12.77;-6.12;4.53
8478;-5.39;2.38;8.02;-0.09;0.24;-0.43;8.21;-5.78;1.19
8487;-5.44;2.30;8.33;-0.10;0.24;-0.42;0.83;-2.24;-3.91
8495;-5.47;2.10;8.34;-0.10;0.24;-0.42;-5.45;1.76;-6.83
8504;-5.41;1.70;8.18;-0.10;0.24;-0.42;-2.78;4.30;-6.14
8513;-5.18;1.63;7.89;-0.10;0.24;-0.43;3.82;5.71;-3.51
8522;-5.31;1.52;7.85;-0.10;0.24;-0.43;6.17;6.10;-1.05
8531;-5.36;1.47;7.55;-0.10;0.24;-0.43;3.23;4.36;-0.05
8539;-5.39;1.48;7.59;-0.10;0.25;-0.42;-1.72;2.56;0.47
8548;-5.44;1.50;7.80;-0.10;0.25;-0.42;-4.29;2.13;1.69
8557;-5.61;1.56;7.88;-0.10;0.25;-0.42;-2.22;1.99;3.76
8566;-5.63;1.76;7.83;-0.09;0.24;-0.44;1.91;2.51;6.28
8575;-5.63;2.02;7.77;-0.09;0.24;-0.44;5.43;2.57;7.18
8583;-5.57;2.14;7.43;-0.09;0.24;-0.44;7.24;2.32;6.27
8592;-5.45;2.14;7.34;-0.09;0.25;-0.44;7.44;1.33;4.40
8601;-5.48;2.06;7.31;-0.09;0.25;-0.44;5.66;0.52;1.70
8610;-5.52;1.96;7.27;-0.09;0.25;-0.44;1.63;-0.04;-0.66
8619;-5.67;1.79;7.45;-0.09;0.24;-0.44;-1.91;0.31;-1.58
8628;-5.77;1.73;7.53;-0.09;0.24;-0.44;-2.46;0.88;-0.23
8637;-5.74;1.67;7.56;-0.09;0.24;-0.44;1.21;0.93;1.85
8645;-5.69;1.59;7.53;-0.09;0.25;-0.43;4.28;0.85;3.66
8654;-5.59;1.54;7.53;-0.09;0.25;-0.43;5.49;0.88;5.76
8663;-5.56;1.53;7.61;-0.09;0.25;-0.44;6.20;0.19;8.02
8672;-5.35;1.55;7.58;-0.09;0.25;-0.44;9.56;-0.54;10.74
8681;-5.26;1.74;7.57;-0.09;0.25;-0.44;12.47;-2.36;10.72
8689;-5.36;1.86;7.69;-0.09;0.25;-0.43;11.79;-3.02;11.38
8698;-5.38;2.04;7.80;-0.09;0.25;-0.43;7.76;-3.00;8.97
8707;-5.32;1.96;7.88;-0.09;0.25;-0.43;4.24;-1.87;6.23
8716;-5.64;1.86;7.91;-0.09;0.25;-0.44;0.04;0.39;2.79
8724;-5.51;1.69;7.88;-0.09;0.25;-0.44;-2.63;1.19;2.19
8733;-5.57;1.38;7.91;-0.09;0.25;-0.44;-3.24;1.64;2.83
8742;-5.43;1.59;7.83;-0.10;0.25;-0.43;0.17;1.00;6.09
8751;-5.33;1.77;7.88;-0.10;0.25;-0.43;5.75;0.20;7.96
8760;-5.30;1.86;7.67;-0.10;0.25;-0.43;9.24;-1.35;10.74
8769;-5.49;1.84;7.66;-0.10;0.25;-0.43;11.32;-3.54;11.17
8777;-5.45;1.80;7.66;-0.10;0.25;-0.43;11.45;-6.03;10.04
8786;-5.53;1.76;7.74;-0.10;0.25;-0.43;10.20;-6.35;10.16
8795;-5.72;1.67;7.90;-0.11;0.26;-0.43;8.47;-5.64;8.89
8804;-5.86;1.51;7.90;-0.11;0.26;-0.43;4.21;-3.47;7.28
8813;-5.99;1.34;7.90;-0.11;0.26;-0.43;-1.54;-1.09;5.01
8821;-6.05;1.15;7.96;-0.10;0.26;-0.43;-5.80;0.81;4.28
8830;-6.03;1.05;7.92;-0.10;0.26;-0.43;-7.12;3.32;7.28
8839;-6.20;1.03;8.04;-0.10;0.26;-0.43;-2.31;4.76;9.92
8848;-6.22;1.11;8.07;-0.10;0.26;-0.44;-0.63;5.02;14.94
8857;-6.43;1.16;7.95;-0.10;0.26;-0.44;5.53;4.67;20.55
8865;-6.31;1.20;7.85;-0.10;0.26;-0.44;13.50;3.81;27.07
8874;-6.30;1.20;7.75;-0.11;0.27;-0.44;21.10;2.19;30.24
8883;-6.28;1.23;7.73;-0.11;0.27;-0.44;26.75;1.63;33.77
8892;-6.43;1.18;7.73;-0.11;0.27;-0.44;29.01;2.67;37.08
8901;-6.31;1.16;7.72;-0.11;0.27;-0.43;28.04;3.02;35.43
8909;-6.34;1.12;7.77;-0.11;0.27;-0.43;24.79;3.24;32.29
8918;-6.41;0.85;7.59;-0.11;0.27;-0.43;19.59;4.86;27.91
8927;-6.57;0.73;7.53;-0.11;0.29;-0.44;13.31;6.23;24.94
8936;-6.55;0.84;7.37;-0.11;0.29;-0.44;12.93;4.21;23.16
8945;-6.55;0.94;7.35;-0.11;0.27;-0.44;19.28;1.21;23.97
8954;-6.51;0.95;7.25;-0.11;0.27;-0.44;26.64;-2.81;27.90
8963;-6.62;1.17;7.26;-0.11;0.27;-0.44;36.92;-8.43;30.62
8971;-6.72;1.17;7.46;-0.11;0.30;-0.45;44.12;-11.82;33.08
8980;-6.80;1.23;7.72;-0.11;0.30;-0.45;42.60;-12.39;33.65
8989;-7.16;1.20;8.05;-0.11;0.30;-0.45;39.99;-7.67;32.89
8998;-7.31;1.03;8.34;-0.12;0.31;-0.44;31.15;-0.56;31.94
9007;-7.29;0.86;8.59;-0.12;0.31;-0.44;19.93;11.10;33.51
9015;-7.00;0.77;8.51;-0.12;0.31;-0.44;10.65;21.04;33.94
9024;-6.76;0.50;8.07;-0.12;0.31;-0.44;7.03;30.18;34.81
9033;-6.49;0.50;7.50;-0.12;0.31;-0.44;5.32;39.11;37.27
9042;-6.55;0.58;7.04;-0.12;0.31;-0.44;1.22;42.98;38.38
9051;-6.46;0.67;6.73;-0.11;0.32;-0.44;-5.47;42.06;37.63
9059;-6.23;0.71;6.53;-0.11;0.32;-0.44;-9.60;37.97;35.88
9068;-6.13;0.76;6.50;-0.11;0.32;-0.44;-11.84;33.50;34.31
9077;-6.00;0.84;6.77;-0.11;0.31;-0.45;-12.07;29.16;31.91
9086;-5.83;0.89;7.06;-0.11;0.31;-0.45;-9.90;26.77;26.92
9095;-5.62;0.95;7.37;-0.11;0.31;-0.45;-8.11;26.43;26.13
9104;-5.75;1.03;7.79;-0.11;0.30;-0.44;-6.52;27.95;23.91
9112;-5.49;1.10;8.10;-0.11;0.30;-0.44;-5.52;28.95;20.73
9121;-5.61;1.27;8.24;-0.11;0.30;-0.44;-5.75;30.23;17.60
9130;-5.52;1.25;8.17;-0.10;0.31;-0.46;-5.75;32.81;16.77
9139;-5.55;1.28;8.22;-0.10;0.31;-0.46;-7.87;34.44;17.89
9148;-5.52;1.35;7.93;-0.10;0.31;-0.46;-11.10;34.28;24.17
9156;-5.44;1.34;8.00;-0.11;0.31;-0.47;-12.07;32.44;24.52
9165;-5.37;1.29;8.01;-0.11;0.31;-0.47;-8.99;30.00;23.74
9174;-5.37;1.19;7.97;-0.11;0.31;-0.47;-4.35;25.83;22.60
9183;-5.24;0.92;7.93;-0.09;0.31;-0.46;1.34;21.93;22.72
9192;-5.25;0.64;8.04;-0.09;0.31;-0.46;8.51;18.57;24.34
9201;-5.16;0.48;8.17;-0.09;0.31;-0.46;10.62;17.24;26.87
9209;-5.20;0.42;8.20;-0.08;0.31;-0.46;13.15;16.13;29.82
9218;-5.07;0.48;8.12;-0.08;0.31;-0.46;15.54;13.94;31.98
9227;-5.06;0.48;8.20;-0.09;0.32;-0.46;16.37;13.52;31.21
9236;-5.08;0.67;8.27;-0.09;0.32;-0.46;15.00;13.59;28.09
9245;-5.03;0.54;8.32;-0.09;0.32;-0.46;12.16;13.65;25.79
9253;-5.09;0.35;8.18;-0.09;0.33;-0.46;6.55;11.54;25.49
9262;-4.96;0.08;8.09;-0.09;0.33;-0.46;-1.50;12.03;26.98
9271;-5.08;-0.01;8.03;-0.09;0.33;-0.46;-9.54;12.87;27.82
9280;-5.12;-0.07;8.16;-0.08;0.33;-0.45;-13.30;12.22;27.03
9289;-5.11;-0.25;8.38;-0.08;0.33;-0.45;-11.50;9.90;25.18
9297;-5.32;-0.47;8.53;-0.08;0.33;-0.45;-8.02;8.32;23.02
9306;-5.40;-0.55;8.46;-0.09;0.32;-0.46;-4.36;8.65;23.08
9315;-5.37;-0.55;8.65;-0.09;0.32;-0.46;-3.37;8.90;24.80
9324;-5.49;-0.49;8.71;-0.09;0.32;-0.46;-1.60;9.42;28.74
9333;-5.48;-0.52;8.75;-0.10;0.33;-0.44;-0.81;7.15;30.58
9342;-5.16;-0.44;8.78;-0.10;0.33;-0.44;-0.12;6.77;32.03
9350;-5.02;-0.30;8.76;-0.10;0.33;-0.44;-1.68;7.40;31.11
9359;-4.81;-0.28;8.75;-0.09;0.33;-0.45;-4.71;9.36;29.06
9368;-4.69;-0.32;8.76;-0.09;0.33;-0.45;-8.45;12.15;25.93
9377;-4.60;-0.23;8.65;-0.09;0.33;-0.45;-10.89;13.32;23.22
9386;-4.44;-0.19;8.59;-0.08;0.32;-0.45;-12.85;14.97;21.38
9394;-4.18;-0.19;8.51;-0.08;0.32;-0.45;-14.77;15.30;17.43
9403;-3.95;-0.14;8.36;-0.08;0.32;-0.45;-17.67;16.59;14.51
9412;-3.73;-0.19;8.40;-0.09;0.32;-0.46;-19.73;17.18;12.53
9421;-3.70;-0.27;8.22;-0.09;0.32;-0.46;-20.71;18.25;11.25
9430;-3.76;-0.17;8.31;-0.09;0.32;-0.46;-19.97;17.98;11.13
9438;-3.75;-0.06;8.23;-0.07;0.32;-0.47;-15.83;15.68;10.82
9447;-3.62;-0.11;8.19;-0.07;0.32;-0.47;-11.98;12.98;10.66
9456;-3.64;-0.08;8.13;-0.07;0.32;-0.47;-9.66;10.88;11.68
9464;-3.70;0.04;8.03;-0.07;0.31;-0.45;-6.03;9.79;13.08
9473;-3.76;-0.15;7.80;-0.07;0.31;-0.45;0.03;6.29;14.00
9482;-3.73;0.04;7.81;-0.07;0.31;-0.45;8.26;0.93;14.20
9491;-3.56;-0.13;7.87;-0.07;0.31;-0.47;13.84;-5.31;13.97
9500;-3.61;-0.15;7.96;-0.07;0.31;-0.47;15.49;-10.04;13.72
9509;-3.44;-0.19;8.22;-0.07;0.31;-0.47;13.93;-10.81;13.02
9517;-3.53;-0.04;8.68;-0.07;0.31;-0.47;11.98;-8.99;13.19
9526;-3.48;0.02;9.18;-0.07;0.31;-0.47;12.64;-6.43;11.94
9535;-3.57;0.01;9.22;-0.08;0.32;-0.45;16.65;-4.19;11.18
9544;-3.83;-0.01;9.17;-0.08;0.32;-0.45;23.20;-2.41;9.77
9553;-4.06;-0.09;9.03;-0.08;0.32;-0.45;26.43;-3.95;8.48
9562;-4.12;-0.20;8.83;-0.08;0.32;-0.46;23.15;-4.45;7.63
9570;-4.15;-0.22;8.74;-0.08;0.32;-0.46;18.30;-3.21;8.24
9579;-4.38;-0.31;8.73;-0.08;0.32;-0.46;16.26;-3.46;8.52
9588;-4.41;-0.44;8.67;-0.08;0.33;-0.46;18.25;-4.66;8.35
9597;-4.42;-0.57;8.76;-0.08;0.33;-0.46;21.94;-5.49;8.78
9606;-4.34;-0.70;8.74;-0.08;0.33;-0.46;23.93;-5.55;9.36
9614;-4.22;-0.67;8.88;-0.08;0.33;-0.45;23.43;-3.59;9.14
9623;-4.08;-0.70;9.13;-0.08;0.33;-0.45;19.22;0.43;7.70
9632;-3.70;-0.80;9.30;-0.08;0.33;-0.45;10.53;6.82;4.25
9641;-3.78;-0.95;9.43;-0.07;0.34;-0.46;-0.06;12.54;1.62
9649;-3.84;-0.92;9.73;-0.07;0.34;-0.46;-5.76;17.34;-1.18
9658;-3.49;-0.97;9.77;-0.07;0.34;-0.46;-9.22;20.06;-4.24
9667;-3.34;-1.13;9.76;-0.08;0.34;-0.45;-11.31;21.74;-4.22
9676;-3.28;-0.89;9.47;-0.08;0.34;-0.45;-9.71;21.84;-4.11
9685;-3.22;-0.78;9.23;-0.08;0.34;-0.45;-4.75;18.81;-4.47
9693;-2.94;-0.88;9.04;-0.07;0.34;-0.47;1.05;13.65;-3.46
9702;-2.78;-1.18;8.84;-0.07;0.34;-0.47;7.71;9.18;-1.80
9711;-2.75;-1.28;8.75;-0.07;0.34;-0.47;15.23;4.99;-0.12
9720;-2.55;-1.43;8.76;-0.06;0.34;-0.47;18.58;2.16;2.06
9729;-2.52;-1.48;8.77;-0.06;0.34;-0.47;15.57;1.00;2.34
9737;-2.33;-1.57;9.05;-0.06;0.34;-0.47;7.59;1.50;0.97
9746;-2.04;-1.67;9.36;-0.07;0.34;-0.45;-0.26;4.12;-1.43
9755;-1.93;-1.80;9.63;-0.07;0.34;-0.45;-3.42;5.91;-3.58
9764;-1.94;-1.93;9.71;-0.07;0.34;-0.45;-3.74;8.57;-3.79
9772;-2.18;-1.84;9.38;-0.07;0.34;-0.47;-2.73;10.99;-2.40
9781;-2.36;-1.61;9.24;-0.07;0.34;-0.47;-3.05;12.08;-2.09
9790;-2.41;-1.55;8.98;-0.07;0.34;-0.46;-8.92;11.12;-3.00
9799;-2.42;-1.66;9.00;-0.06;0.34;-0.46;-14.19;9.20;-4.55
9808;-2.47;-1.56;9.31;-0.06;0.34;-0.46;-20.97;7.51;-5.35
9817;-2.54;-1.69;9.81;-0.06;0.33;-0.47;-22.04;5.15;-4.21
9826;-2.65;-1.74;10.22;-0.06;0.33;-0.47;-15.72;3.05;-0.22
9834;-2.76;-1.63;10.36;-0.06;0.33;-0.47;-5.89;0.21;3.68
9843;-2.62;-1.32;10.24;-0.06;0.33;-0.45;2.88;2.23;7.97
9852;-2.70;-0.98;9.81;-0.06;0.33;-0.45;7.27;2.54;9.49
9861;-2.71;-0.46;9.32;-0.06;0.33;-0.45;5.92;5.31;9.27
9869;-2.73;-0.37;8.85;-0.05;0.33;-0.46;1.17;7.20;7.21
9878;-2.79;-0.13;8.69;-0.05;0.33;-0.46;-4.83;8.39;4.21
9887;-2.90;0.05;8.49;-0.05;0.33;-0.46;-11.84;8.52;1.03
9896;-2.97;0.10;8.62;-0.05;0.33;-0.45;-17.21;8.06;-2.15
9905;-3.05;0.04;8.75;-0.05;0.33;-0.45;-20.71;7.00;-4.68
9913;-3.16;-0.01;9.00;-0.05;0.33;-0.45;-20.79;7.34;-4.23
9922;-3.23;0.00;8.99;-0.06;0.33;-0.46;-16.57;7.87;-1.65
9931;-3.25;0.05;8.92;-0.06;0.33;-0.46;-9.26;7.76;1.50
9940;-3.34;0.12;8.76;-0.06;0.33;-0.46;-1.34;6.03;2.90
9949;-3.23;0.20;8.79;-0.05;0.33;-0.45;3.49;3.83;3.43
9957;-3.06;0.16;8.71;-0.05;0.33;-0.45;6.82;1.40;2.93
9966;-2.68;0.17;8.71;-0.05;0.33;-0.45;7.52;1.66;2.07
9975;-2.62;0.25;8.79;-0.06;0.34;-0.45;4.93;3.36;0.67
9984;-2.67;0.28;8.77;-0.06;0.34;-0.45;2.76;4.16;-2.88
9993;-2.47;0.09;8.76;-0.06;0.34;-0.45;2.01;4.03;-7.14
10001;-2.62;-0.07;8.72;-0.06;0.33;-0.46;3.48;3.19;-10.34
10010;-2.70;-0.24;8.83;-0.06;0.33;-0.46;4.45;2.82;-11.55
10019;-2.66;-0.46;8.70;-0.06;0.33;-0.46;4.77;2.71;-11.20
10028;-2.56;-0.64;8.79;-0.05;0.33;-0.46;4.96;2.39;-10.04
10037;-2.68;-0.60;8.75;-0.05;0.33;-0.46;4.44;2.42;-8.93
10045;-2.50;-0.62;8.86;-0.05;0.33;-0.46;2.58;2.28;-9.39
10054;-2.21;-0.63;8.97;-0.06;0.33;-0.46;-0.27;2.12;-10.81
10063;-2.03;-0.61;9.22;-0.06;0.33;-0.46;-2.77;1.77;-12.77
10072;-1.82;-0.55;9.41;-0.06;0.33;-0.46;-5.17;3.00;-14.39
10081;-1.49;-0.55;9.52;-0.06;0.34;-0.46;-6.61;5.67;-15.43
10089;-1.41;-0.52;9.62;-0.06;0.34;-0.46;-7.74;10.04;-17.15
10098;-1.32;-0.36;9.39;-0.05;0.33;-0.46;-10.75;14.01;-19.28
10107;-1.36;-0.05;9.23;-0.05;0.33;-0.46;-14.52;18.43;-22.53
10116;-1.44;0.09;8.93;-0.05;0.33;-0.46;-21.36;21.82;-27.61
10125;-1.56;0.02;8.84;-0.05;0.33;-0.46;-33.67;24.93;-30.64
10134;-1.85;0.13;8.67;-0.05;0.33;-0.46;-45.43;24.77;-31.26
10142;-1.90;-0.03;8.77;-0.05;0.33;-0.46;-55.40;21.74;-28.41
10151;-2.08;0.01;8.89;-0.04;0.32;-0.45;-57.24;15.80;-25.23
10160;-2.09;0.03;9.17;-0.04;0.32;-0.45;-47.51;6.62;-25.66
10169;-2.02;0.19;9.32;-0.04;0.32;-0.45;-32.35;-0.79;-26.54
10178;-2.47;0.35;9.18;-0.03;0.31;-0.45;-17.56;-7.93;-28.17
10187;-2.60;0.49;9.09;-0.03;0.31;-0.45;-10.72;-15.18;-33.78
10196;-2.26;0.43;8.83;-0.03;0.31;-0.45;-8.51;-11.95;-30.99
10204;-2.75;0.55;8.85;-0.04;0.31;-0.46;-12.45;-8.20;-30.17
10213;-2.93;0.68;9.00;-0.04;0.31;-0.46;-15.78;-6.58;-32.53
10222;-2.93;0.38;9.08;-0.04;0.31;-0.46;-19.54;-4.68;-35.17
10231;-3.06;0.03;8.91;-0.03;0.30;-0.46;-22.23;-3.30;-35.80
10240;-3.56;-0.55;8.61;-0.03;0.30;-0.46;-24.22;-4.18;-32.69
10248;-4.25;-0.95;8.47;-0.03;0.30;-0.46;-16.87;-12.56;-26.11
10257;-4.62;-1.15;8.21;-0.03;0.29;-0.46;0.55;-25.20;-20.14
10266;-4.79;-1.05;8.41;-0.03;0.29;-0.46;20.07;-35.93;-21.06
10275;-5.02;-1.17;8.78;-0.03;0.29;-0.46;34.71;-45.01;-23.38
10284;-5.13;-1.24;9.01;-0.04;0.30;-0.45;40.44;-46.81;-22.04
10293;-5.37;-1.15;9.26;-0.04;0.30;-0.45;35.38;-41.89;-21.23
10302;-5.46;-0.78;9.26;-0.04;0.30;-0.45;23.91;-34.08;-26.77
10310;-5.58;-0.63;9.12;-0.04;0.29;-0.45;5.84;-23.78;-32.07
10319;-5.53;-0.54;9.04;-0.04;0.29;-0.45;-12.32;-12.77;-40.14
10328;-5.51;-0.63;9.27;-0.04;0.29;-0.45;-31.44;-0.66;-46.50
10337;-5.46;-0.61;9.69;-0.04;0.30;-0.45;-47.12;11.57;-49.40
10346;-5.14;-0.57;9.87;-0.04;0.30;-0.45;-56.24;18.80;-48.60
10355;-4.52;-0.65;10.26;-0.03;0.28;-0.45;-57.17;26.22;-44.29
10363;-4.17;-0.54;10.61;-0.03;0.28;-0.45;-54.52;32.56;-35.39
10372;-3.55;-0.16;10.47;-0.03;0.28;-0.45;-48.13;32.32;-21.98
10381;-2.99;0.53;10.60;-0.03;0.28;-0.45;-34.27;29.27;-5.91
10390;-2.23;1.71;10.82;-0.03;0.28;-0.45;-9.56;17.06;12.01
10399;-1.23;4.13;11.20;-0.03;0.28;-0.45;30.00;-7.78;35.77
10408;0.82;6.90;11.36;-0.04;0.28;-0.45;87.30;-33.67;52.59
10417;3.28;10.98;12.11;-0.04;0.28;-0.45;142.86;-49.47;45.76
10425;6.15;16.37;10.88;-0.04;0.28;-0.45;159.40;-67.42;13.06
10434;9.21;19.60;7.83;-0.05;0.31;-0.44;158.65;-57.25;-53.48
10443;10.00;19.60;2.83;-0.05;0.31;-0.44;147.95;-28.55;-139.20
10452;5.88;19.60;-6.38;-0.05;0.31;-0.44;124.18;-21.74;-240.21
10461;-6.68;15.85;-16.45;-0.01;0.30;-0.47;38.70;-61.22;-286.72
10470;-18.25;8.81;-19.60;-0.01;0.30;-0.47;-149.89;-178.84;-286.72
10478;-19.60;3.00;-14.03;-0.01;0.30;-0.47;-268.07;-286.72;-286.72
10487;-19.60;-5.57;3.94;-0.01;0.24;-0.46;-286.72;-286.72;-286.72
10496;-19.60;-19.60;19.60;-0.01;0.24;-0.46;-286.72;-286.72;-286.72
10505;-19.60;-19.60;19.60;-0.01;0.24;-0.46;-286.72;-192.31;-286.72
10514;-19.60;-19.60;19.60;-0.06;0.17;-0.42;-285.76;118.23;22.18
10523;-19.60;-19.60;19.60;-0.06;0.17;-0.42;273.71;256.37;286.68
10532;-19.58;13.22;-5.22;-0.06;0.17;-0.42;286.68;202.05;286.68
10541;-8.70;19.60;-10.79;0.01;0.12;-0.43;286.68;61.59;286.68
10550;2.97;19.60;-5.50;0.01;0.12;-0.43;-44.96;23.91;99.34
10559;2.22;19.60;-2.59;0.01;0.16;-0.45;-228.51;14.70;-47.05
10568;-2.19;14.27;2.49;-0.01;0.16;-0.45;-108.34;-24.18;-52.45
10577;-5.50;5.32;8.71;-0.01;0.16;-0.45;-0.02;-29.92;-38.22
10586;-9.09;0.00;10.96;-0.02;0.15;-0.44;-26.01;3.24;-22.59
10595;-9.48;-4.42;11.23;-0.02;0.15;-0.44;-42.38;30.59;3.61
10603;-8.32;-3.50;9.00;-0.02;0.15;-0.44;13.53;50.35;53.31
10612;-6.88;0.65;5.01;-0.01;0.14;-0.42;65.00;46.04;91.77
10621;-5.02;8.00;2.69;-0.01;0.14;-0.42;60.60;33.72;84.40
10630;-3.47;11.27;0.99;-0.01;0.14;-0.42;10.67;21.29;43.99
10639;-2.56;10.69;1.85;-0.02;0.15;-0.44;-11.77;-2.35;1.18
10648;-3.29;8.07;4.53;-0.02;0.15;-0.44;-13.64;-25.75;-23.21
10657;-4.39;4.33;7.87;-0.02;0.15;-0.44;-20.54;-27.16;-36.54
10666;-5.68;0.52;8.74;-0.01;0.16;-0.43;-19.40;-20.74;-34.69
10675;-5.70;-1.93;8.97;-0.01;0.16;-0.43;-7.79;-14.59;-17.46
10684;-5.51;-2.29;8.69;-0.01;0.16;-0.43;0.90;-10.88;0.97
10693;-5.37;-0.82;8.11;-0.01;0.16;-0.44;0.90;-7.65;12.01
10701;-4.60;1.32;6.86;-0.01;0.16;-0.44;6.31;-10.52;17.61
10710;-4.32;2.63;6.45;-0.01;0.16;-0.44;4.23;-17.40;15.51
10719;-4.41;2.84;7.47;-0.01;0.16;-0.44;-6.41;-21.97;5.92
10728;-4.92;1.91;8.63;-0.01;0.16;-0.44;-13.97;-19.75;-2.12
10737;-5.37;0.69;9.62;-0.01;0.16;-0.44;-10.54;-13.11;-0.81
10746;-5.74;0.22;10.55;-0.01;0.15;-0.44;-7.75;-3.61;2.14
10755;-6.27;0.30;10.15;-0.01;0.15;-0.44;-13.20;4.31;2.28
10764;-6.37;0.35;9.47;-0.01;0.16;-0.43;-13.01;6.06;4.60
10773;-6.15;0.53;9.20;-0.01;0.16;-0.43;-10.10;2.49;7.31
10782;-6.27;0.87;8.97;-0.01;0.16;-0.43;-8.73;2.95;9.94
10791;-6.18;1.39;8.72;-0.02;0.16;-0.42;-6.91;1.80;10.76
10800;-6.07;1.94;8.47;-0.02;0.16;-0.42;-0.16;1.78;11.31
10809;-5.93;2.33;7.94;-0.02;0.16;-0.42;2.62;2.69;9.19
10817;-6.07;2.13;7.67;-0.02;0.16;-0.43;0.97;0.65;3.51
10826;-6.20;1.38;8.10;-0.02;0.16;-0.43;-7.01;1.72;-0.85
10835;-6.50;0.38;8.74;-0.02;0.16;-0.43;-13.30;6.19;-2.46
10844;-6.89;-0.17;8.91;-0.02;0.16;-0.44;-16.39;9.06;0.58
10853;-6.80;-0.01;8.94;-0.02;0.16;-0.44;-14.48;11.52;5.18
10862;-6.73;0.73;8.39;-0.02;0.16;-0.44;-6.28;13.49;12.43
10871;-6.16;1.67;7.46;-0.02;0.16;-0.44;3.74;13.46;17.57
10880;-5.70;2.27;6.76;-0.02;0.16;-0.44;8.90;8.42;17.47
10889;-5.53;2.42;7.06;-0.02;0.16;-0.44;2.37;5.78;10.99
10897;-5.55;2.45;7.32;-0.02;0.17;-0.44;-5.83;4.78;5.45
10906;-5.62;2.44;7.28;-0.02;0.17;-0.44;-0.33;2.72;3.56
10915;-5.50;2.37;7.63;-0.02;0.17;-0.44;1.17;1.12;2.26
10924;-5.54;2.10;8.13;-0.03;0.17;-0.43;-3.72;2.60;-0.60
10933;-5.61;1.76;8.19;-0.03;0.17;-0.43;-4.00;5.87;-3.03
10942;-5.61;1.42;8.02;-0.03;0.17;-0.43;-5.94;8.24;-1.48
10951;-5.70;1.49;7.80;-0.03;0.17;-0.43;-4.73;9.00;1.01
10960;-5.63;1.60;7.46;-0.03;0.17;-0.43;-0.27;7.36;5.27
10969;-5.61;1.76;7.40;-0.03;0.21;-0.43;5.92;3.21;9.60
10978;-5.48;2.28;7.51;-0.03;0.18;-0.43;15.44;0.25;13.95
10987;-5.39;2.91;7.27;-0.03;0.18;-0.43;24.21;-1.72;13.66
10995;-5.11;3.21;7.02;-0.03;0.19;-0.44;12.58;-2.34;5.07
11004;-5.02;2.77;7.17;-0.03;0.19;-0.44;-2.07;-2.85;-6.71
11013;-5.09;2.03;7.34;-0.03;0.19;-0.44;-10.03;-3.39;-11.84
11022;-5.27;1.45;7.61;-0.04;0.20;-0.44;-10.01;-2.77;-11.25
11031;-5.39;1.26;8.10;-0.04;0.20;-0.44;-11.95;-0.34;-9.05
11040;-5.61;1.35;8.35;-0.04;0.20;-0.44;-10.94;2.73;-6.25
11049;-5.74;1.34;8.41;-0.04;0.19;-0.43;-6.52;4.93;-1.10
11058;-5.82;1.40;8.31;-0.04;0.19;-0.43;-1.61;7.15;2.10
11067;-5.86;1.47;8.11;-0.04;0.19;-0.43;3.18;8.82;4.95
11075;-5.82;1.62;7.56;-0.04;0.19;-0.43;9.78;8.99;9.01
11084;-5.71;1.80;7.19;-0.04;0.19;-0.43;17.03;5.25;10.53
11093;-5.47;1.87;7.25;-0.04;0.19;-0.43;17.66;2.46;8.86
11102;-5.36;1.76;7.12;-0.04;0.20;-0.44;11.27;-0.04;3.81
11111;-5.38;1.44;7.23;-0.04;0.20;-0.44;3.21;-1.32;-2.01
11120;-5.70;1.00;7.79;-0.04;0.20;-0.44;-9.16;0.66;-6.04
11129;-5.88;0.60;8.23;-0.05;0.20;-0.44;-12.56;3.99;-5.54
11138;-6.02;0.45;8.44;-0.05;0.20;-0.44;-5.93;7.55;0.04
11147;-5.86;0.81;8.17;-0.05;0.20;-0.44;4.18;10.17;7.99
11156;-5.46;1.50;7.42;-0.04;0.20;-0.44;16.82;9.98;13.63
11164;-5.23;1.97;6.99;-0.04;0.20;-0.44;24.80;6.83;15.53
11173;-5.17;2.17;7.10;-0.04;0.20;-0.44;28.17;0.72;15.02
11182;-4.99;2.24;7.26;-0.05;0.21;-0.44;26.10;-2.14;10.81
11191;-5.11;2.03;7.30;-0.05;0.21;-0.44;16.90;-3.33;3.14
11200;-5.27;1.66;7.58;-0.05;0.22;-0.43;3.49;-4.81;-3.35
11209;-5.39;0.93;8.00;-0.05;0.22;-0.43;-6.62;-3.87;-8.89
11218;-5.85;0.31;8.42;-0.05;0.22;-0.43;-10.62;-1.11;-5.11
11227;-6.07;0.05;8.87;-0.06;0.23;-0.44;-7.80;2.63;0.85
11236;-5.97;0.33;8.83;-0.06;0.23;-0.44;0.31;8.10;10.44
11245;-5.70;0.89;8.57;-0.06;0.23;-0.44;10.97;13.05;16.44
11253;-5.52;1.29;8.25;-0.06;0.23;-0.45;15.78;15.11;18.53
11262;-5.46;1.60;8.05;-0.06;0.23;-0.45;16.28;16.18;19.01
11271;-5.39;1.57;7.84;-0.06;0.23;-0.45;15.09;17.34;18.41
11280;-5.42;1.29;7.91;-0.07;0.24;-0.44;13.99;16.47;18.35
11289;-5.49;1.01;8.09;-0.07;0.24;-0.44;13.19;16.49;16.90
11298;-5.60;0.70;8.32;-0.07;0.24;-0.44;12.92;18.12;15.02
11307;-5.83;0.50;8.60;-0.07;0.25;-0.44;10.73;20.50;12.90
11315;-6.11;0.30;8.62;-0.07;0.25;-0.44;6.99;25.02;9.14
11324;-6.19;0.20;8.43;-0.07;0.25;-0.44;4.51;28.87;6.55
11333;-6.26;0.18;8.20;-0.08;0.26;-0.45;2.97;32.94;6.04
11342;-6.11;0.31;8.04;-0.08;0.26;-0.45;2.20;36.83;5.86
11351;-6.17;0.70;7.82;-0.08;0.26;-0.45;1.31;39.80;8.67
11360;-6.28;0.68;7.82;-0.09;0.27;-0.46;0.57;41.26;17.51
11369;-6.08;1.22;8.08;-0.09;0.27;-0.46;-0.31;41.81;18.99
11378;-6.22;1.33;8.13;-0.09;0.27;-0.46;-0.18;41.32;23.35
11387;-6.35;1.49;8.18;-0.08;0.28;-0.45;3.00;37.86;24.35
11395;-6.24;1.45;8.06;-0.08;0.28;-0.45;6.86;33.76;24.29
11404;-5.98;1.22;8.05;-0.08;0.28;-0.45;10.91;32.50;23.69
11413;-5.85;1.34;8.04;-0.07;0.29;-0.44;13.38;31.61;26.11
11422;-5.87;1.34;7.92;-0.07;0.29;-0.44;14.01;27.34;28.52
11431;-5.62;1.18;7.91;-0.08;0.29;-0.45;12.57;25.66;28.24
11440;-5.35;1.11;7.90;-0.08;0.29;-0.45;8.58;25.63;26.88
11449;-5.34;0.95;7.95;-0.08;0.29;-0.45;6.02;27.06;26.38
11457;-5.46;1.05;8.02;-0.08;0.30;-0.45;1.89;28.39;25.65
11466;-5.39;1.05;7.94;-0.08;0.30;-0.45;-2.15;29.16;23.91
11475;-5.45;1.01;7.86;-0.08;0.30;-0.45;-4.78;28.54;25.23
11484;-5.32;1.09;7.82;-0.07;0.31;-0.45;-6.06;27.40;27.45
11493;-5.25;1.30;7.75;-0.07;0.31;-0.45;-6.90;25.78;29.11
11502;-5.13;1.54;7.93;-0.07;0.31;-0.45;-8.06;24.84;27.71
11511;-4.96;1.53;8.05;-0.07;0.30;-0.46;-8.36;24.05;23.54
11519;-4.96;1.41;8.10;-0.07;0.30;-0.46;-7.80;25.55;21.16
11528;-4.91;1.29;8.24;-0.07;0.30;-0.46;-6.11;25.83;20.22
11537;-4.89;1.15;8.17;-0.07;0.31;-0.45;-1.76;26.78;20.97
11546;-4.88;1.04;8.08;-0.07;0.31;-0.45;5.45;26.09;23.28
11555;-4.91;1.04;8.10;-0.07;0.31;-0.45;12.36;23.01;25.07
11564;-4.81;1.22;7.86;-0.06;0.31;-0.46;19.42;19.16;24.13
11572;-4.73;1.11;7.66;-0.06;0.31;-0.46;23.95;14.79;21.81
11581;-4.61;1.15;7.36;-0.06;0.31;-0.46;21.17;13.04;19.46
11590;-4.47;1.17;7.35;-0.06;0.31;-0.45;13.02;13.18;16.67
11599;-4.35;1.24;7.47;-0.06;0.31;-0.45;2.58;14.03;13.90
11608;-4.27;1.41;7.77;-0.06;0.31;-0.45;-8.14;17.87;10.22
11617;-4.58;1.32;8.26;-0.06;0.32;-0.45;-13.79;22.01;6.22
11625;-4.50;1.10;8.66;-0.06;0.32;-0.45;-15.23;26.02;4.25
11634;-4.67;0.99;8.79;-0.06;0.32;-0.45;-11.60;27.88;6.32
11643;-4.68;0.75;8.57;-0.06;0.31;-0.45;-6.29;27.97;10.23
11652;-4.49;0.66;8.38;-0.06;0.31;-0.45;-0.21;25.88;14.06
11661;-4.42;0.71;8.18;-0.06;0.31;-0.45;4.62;25.10;18.36
11669;-4.14;0.79;7.87;-0.06;0.31;-0.44;12.05;22.68;19.15
11678;-3.84;0.58;7.69;-0.06;0.31;-0.44;16.07;16.33;13.82
11687;-3.98;0.62;7.61;-0.05;0.32;-0.44;13.57;13.34;9.00
11696;-3.96;0.56;7.54;-0.05;0.32;-0.44;5.15;11.66;9.84
11704;-4.07;0.57;7.82;-0.05;0.32;-0.44;0.76;11.44;12.48
11713;-4.05;0.62;8.01;-0.05;0.32;-0.44;-2.29;11.51;14.94
11722;-4.07;0.75;8.43;-0.05;0.32;-0.44;-1.58;13.12;15.86
11731;-4.06;0.85;8.55;-0.05;0.32;-0.44;2.21;13.69;12.79
11740;-4.17;0.71;8.72;-0.04;0.31;-0.46;7.63;12.67;10.33
11749;-4.27;0.46;8.69;-0.04;0.31;-0.46;12.88;7.81;11.52
11757;-4.29;0.31;8.67;-0.04;0.31;-0.46;16.76;0.94;15.99
11766;-4.13;0.27;8.69;-0.05;0.32;-0.45;16.38;-4.41;18.56
11775;-4.03;0.30;8.78;-0.05;0.32;-0.45;14.34;-7.37;19.33
11784;-3.92;0.29;8.84;-0.05;0.32;-0.45;12.26;-8.00;18.32
11793;-3.90;0.25;8.91;-0.04;0.33;-0.45;10.46;-6.67;17.18
11801;-3.89;0.11;8.90;-0.04;0.33;-0.45;8.36;-5.32;16.76
11810;-3.98;-0.01;8.99;-0.04;0.33;-0.45;7.82;-3.19;15.92
11819;-3.92;-0.05;9.10;-0.05;0.32;-0.45;7.42;-0.08;14.27
11828;-3.87;0.01;9.37;-0.05;0.32;-0.45;7.13;2.22;11.94
11836;-3.77;-0.02;9.37;-0.05;0.32;-0.45;5.53;3.61;9.12
11845;-3.72;0.08;9.36;-0.05;0.32;-0.45;1.91;6.44;8.44
11854;-3.61;0.12;9.20;-0.05;0.32;-0.45;-5.01;8.09;8.40
11863;-3.68;0.05;9.15;-0.05;0.32;-0.45;-7.39;9.44;7.99
11872;-3.84;-0.08;9.21;-0.05;0.32;-0.44;-7.20;8.72;6.56
11881;-3.87;-0.18;9.16;-0.05;0.32;-0.44;-2.19;7.82;7.15
11889;-3.81;-0.41;9.21;-0.05;0.32;-0.44;5.65;6.31;9.57
11898;-3.78;-0.74;9.23;-0.04;0.31;-0.44;14.82;4.04;11.86
11907;-3.74;-0.87;9.12;-0.04;0.31;-0.44;23.98;2.80;15.45
11916;-3.42;-1.00;9.13;-0.04;0.31;-0.44;27.22;1.93;18.76
11925;-3.28;-0.79;9.11;-0.05;0.33;-0.46;25.02;3.85;20.90
11934;-3.35;-0.50;9.11;-0.05;0.33;-0.46;19.29;3.60;20.33
11942;-3.23;-0.14;9.15;-0.05;0.33;-0.46;12.36;2.36;16.71
11951;-3.26;-0.17;9.23;-0.04;0.33;-0.46;5.16;2.67;12.39
11960;-3.36;-0.14;9.39;-0.04;0.33;-0.46;-0.21;4.30;10.08
11969;-3.39;-0.28;9.16;-0.05;0.34;-0.46;-4.34;6.65;7.61
11978;-3.46;-0.25;9.06;-0.05;0.34;-0.46;-3.26;8.24;6.88
11986;-3.51;-0.51;9.03;-0.05;0.34;-0.46;-0.75;8.19;6.55
11995;-3.49;-0.77;9.14;-0.04;0.34;-0.46;0.53;6.81;8.36
12004;-3.35;-0.81;9.04;-0.04;0.34;-0.46;3.26;5.06;12.12
12013;-3.27;-0.78;9.11;-0.04;0.34;-0.46;9.38;1.64;13.06
12021;-3.24;-0.79;9.21;-0.04;0.33;-0.46;16.18;-3.55;13.37
12030;-3.23;-0.73;9.32;-0.04;0.33;-0.46;18.51;-8.07;13.38
12039;-3.00;-0.58;9.17;-0.04;0.33;-0.46;14.28;-9.71;13.59
12048;-2.78;-0.48;9.33;-0.05;0.34;-0.47;6.58;-8.79;13.78
12057;-2.65;-0.37;9.51;-0.05;0.34;-0.47;-3.25;-6.81;12.57
12066;-2.58;-0.25;9.80;-0.05;0.34;-0.47;-11.65;-2.39;10.98
12074;-2.50;-0.06;10.02;-0.04;0.33;-0.46;-16.44;3.16;6.18
12083;-2.32;-0.21;9.93;-0.04;0.33;-0.46;-12.81;8.09;1.89
12092;-2.43;-0.44;9.83;-0.04;0.33;-0.46;-9.75;11.40;0.01
12101;-2.47;-0.57;9.74;-0.05;0.34;-0.45;-10.56;13.12;-0.88
12110;-2.51;-0.51;9.45;-0.05;0.34;-0.45;-11.48;13.75;0.15
12118;-2.59;-0.51;9.21;-0.05;0.34;-0.45;-8.95;10.97;-0.55
12127;-2.62;-0.57;9.03;-0.04;0.33;-0.45;-5.79;8.03;-2.15
12136;-2.82;-0.74;8.93;-0.04;0.33;-0.45;-5.23;3.63;-3.88
12145;-3.00;-0.70;8.92;-0.04;0.33;-0.45;-7.04;-0.89;-4.80
12154;-2.97;-0.79;8.79;-0.04;0.33;-0.45;-8.88;-3.94;-5.10
12162;-3.02;-0.88;8.88;-0.04;0.33;-0.45;-10.91;-6.32;-5.22
12171;-2.99;-1.05;8.99;-0.04;0.33;-0.45;-12.45;-7.75;-5.64
12180;-3.01;-1.11;9.06;-0.04;0.32;-0.45;-11.66;-8.09;-3.64
12189;-3.15;-1.02;9.22;-0.04;0.32;-0.45;-9.73;-7.05;0.29
12198;-2.86;-1.00;9.36;-0.04;0.32;-0.45;-4.54;-6.37;2.02
12206;-2.72;-0.83;9.27;-0.05;0.32;-0.45;-2.48;-6.43;3.23
12215;-2.57;-0.92;9.13;-0.05;0.32;-0.45;3.26;-5.80;3.70
12224;-2.64;-0.73;8.77;-0.05;0.32;-0.45;9.67;-5.40;3.32
12233;-2.78;-0.69;8.66;-0.05;0.33;-0.45;13.15;-4.92;1.69
12241;-2.85;-0.54;8.57;-0.05;0.33;-0.45;8.98;-4.93;-0.42
12250;-2.91;-0.56;8.70;-0.05;0.32;-0.46;-0.09;-5.62;-2.77
12259;-2.76;-0.76;8.94;-0.04;0.32;-0.46;-6.76;-7.73;-3.61
12268;-2.60;-0.98;9.47;-0.04;0.32;-0.46;-8.48;-8.23;-2.32
12277;-2.53;-1.13;9.70;-0.05;0.33;-0.45;-4.58;-6.62;3.90
12286;-2.47;-0.95;9.91;-0.05;0.33;-0.45;3.89;-3.46;7.60
12294;-2.29;-0.75;9.83;-0.05;0.33;-0.45;14.81;0.96;10.01
12303;-2.31;-0.51;9.61;-0.04;0.33;-0.47;21.29;5.05;10.41
12312;-2.36;-0.55;9.15;-0.04;0.33;-0.47;22.50;8.84;9.10
12321;-2.34;-0.52;8.72;-0.04;0.33;-0.47;16.48;11.45;6.76
12330;-2.31;-0.75;8.54;-0.04;0.33;-0.48;7.14;10.59;5.13
12339;-2.26;-0.65;8.62;-0.04;0.33;-0.48;1.91;9.11;3.87
12347;-2.23;-0.68;8.64;-0.04;0.33;-0.48;-0.36;5.64;3.71
12356;-2.15;-0.80;8.89;-0.05;0.33;-0.46;-0.11;2.84;4.14
12365;-2.29;-0.80;9.01;-0.05;0.33;-0.46;2.32;0.00;2.26
12374;-2.06;-0.75;9.15;-0.05;0.33;-0.46;5.19;-1.16;6.15
12383;-2.10;-0.64;9.41;-0.04;0.34;-0.46;8.44;0.94;8.74
12391;-2.13;-0.45;9.33;-0.04;0.34;-0.46;10.52;4.56;9.94
12400;-2.18;-0.28;9.00;-0.04;0.34;-0.46;11.40;6.80;7.97
12409;-2.30;-0.20;8.57;-0.05;0.34;-0.46;9.64;7.38;5.37
12418;-2.47;-0.21;8.39;-0.05;0.34;-0.46;3.85;6.11;3.06
12427;-2.63;-0.07;8.33;-0.05;0.34;-0.46;-2.97;4.30;-0.25
12435;-2.75;-0.03;8.49;-0.04;0.34;-0.45;-9.65;2.55;-2.25
12444;-2.92;-0.08;8.82;-0.04;0.34;-0.45;-13.41;1.24;-4.59
12453;-3.00;-0.12;9.07;-0.04;0.34;-0.45;-13.92;-0.40;-6.09
12462;-3.21;-0.20;9.21;-0.04;0.34;-0.46;-12.29;-0.83;-5.87
12471;-3.41;-0.33;9.47;-0.04;0.34;-0.46;-9.96;-0.63;-5.24
12479;-3.35;-0.49;9.55;-0.04;0.34;-0.46;-6.75;0.03;-3.43
12488;-3.35;-0.54;9.51;-0.04;0.33;-0.45;-3.09;0.84;-1.09
12497;-3.28;-0.49;9.48;-0.04;0.33;-0.45;1.64;0.40;-0.18
12506;-3.14;-0.42;9.47;-0.04;0.33;-0.45;5.61;-0.23;-0.55
12515;-3.00;-0.56;9.21;-0.04;0.34;-0.44;7.64;-1.26;-0.73
12524;-2.88;-0.62;9.06;-0.04;0.34;-0.44;8.87;-2.35;-1.34
12533;-2.67;-0.90;8.87;-0.04;0.33;-0.45;8.32;-3.75;-1.47
12541;-2.51;-0.88;8.72;-0.04;0.33;-0.45;6.81;-6.66;-0.86
12550;-2.41;-0.91;8.79;-0.04;0.33;-0.45;6.45;-5.14;-1.00
12559;-2.37;-0.94;9.03;-0.04;0.34;-0.47;5.76;-5.28;-2.84
12568;-2.25;-0.77;8.74;-0.04;0.34;-0.47;5.66;-4.46;-2.62
12576;-2.21;-0.78;8.98;-0.04;0.34;-0.47;5.26;-2.77;-1.95
12585;-2.11;-0.87;8.87;-0.04;0.34;-0.45;3.63;-0.71;-2.75
12594;-1.89;-1.09;8.88;-0.04;0.34;-0.45;3.52;1.10;-1.54
12603;-1.62;-1.22;8.77;-0.04;0.34;-0.45;4.53;1.97;0.31
12612;-1.67;-1.18;8.48;-0.04;0.34;-0.46;8.87;0.88;0.74
12620;-1.71;-1.33;8.34;-0.04;0.34;-0.46;8.23;-1.92;-0.31
12629;-1.67;-1.56;8.40;-0.04;0.34;-0.46;7.60;-7.64;-2.21
12638;-1.48;-1.62;8.23;-0.04;0.34;-0.46;8.39;-11.27;-0.66
12647;-1.64;-1.67;8.25;-0.04;0.34;-0.46;5.56;-14.41;-1.74
12656;-1.42;-1.59;8.19;-0.04;0.34;-0.46;3.63;-16.81;-3.35
12665;-1.38;-1.58;8.30;-0.04;0.34;-0.45;0.62;-16.24;-2.66
12673;-1.80;-1.44;8.49;-0.04;0.34;-0.45;-3.97;-15.91;-2.89
12682;-1.92;-1.19;8.84;-0.04;0.34;-0.45;-8.99;-15.68;-3.80
12691;-1.97;-0.86;9.36;-0.05;0.34;-0.46;-15.09;-14.89;-5.68
12700;-1.91;-0.68;9.81;-0.05;0.34;-0.46;-22.36;-12.96;-8.78
12709;-1.88;-0.43;10.13;-0.05;0.34;-0.46;-29.78;-9.54;-12.20
12717;-1.81;-0.25;10.53;-0.06;0.34;-0.46;-37.42;-4.14;-16.31
12726;-1.85;-0.16;10.51;-0.06;0.34;-0.46;-42.04;1.00;-19.10
12735;-1.81;-0.14;10.44;-0.06;0.34;-0.46;-43.93;3.87;-21.29
12744;-1.78;-0.11;10.62;-0.05;0.32;-0.46;-44.40;5.13;-22.50
12753;-1.85;-0.03;10.71;-0.05;0.32;-0.46;-45.91;5.43;-20.86
12762;-1.63;0.00;10.77;-0.05;0.32;-0.46;-43.92;5.07;-17.62
12771;-1.87;0.25;10.85;-0.05;0.32;-0.45;-36.29;5.92;-16.24
12779;-2.17;0.43;10.60;-0.05;0.32;-0.45;-25.18;6.44;-15.87
12788;-2.18;0.50;10.22;-0.05;0.32;-0.45;-23.42;6.72;-14.61
12797;-2.22;0.81;9.81;-0.05;0.32;-0.45;-21.82;4.96;-17.12
12806;-2.32;0.95;9.41;-0.05;0.32;-0.45;-19.51;4.45;-21.88
12815;-2.11;0.86;9.07;-0.04;0.31;-0.45;-18.80;4.17;-30.32
12824;-2.28;0.61;8.58;-0.04;0.31;-0.45;-22.97;7.94;-33.85
12833;-2.46;0.57;8.81;-0.04;0.31;-0.45;-24.34;3.28;-39.30
12841;-2.65;0.41;8.91;-0.04;0.30;-0.45;-26.50;0.04;-45.10
12850;-2.53;0.60;8.95;-0.04;0.30;-0.45;-29.62;-1.45;-50.51
12859;-2.97;0.64;9.07;-0.04;0.30;-0.45;-30.16;1.73;-51.77
12868;-2.90;0.56;9.13;-0.04;0.29;-0.46;-31.01;3.90;-54.23
12877;-2.68;0.53;9.29;-0.04;0.29;-0.46;-33.57;6.08;-56.52
12886;-2.60;0.52;9.42;-0.04;0.29;-0.46;-36.55;9.22;-57.71
12894;-2.25;0.71;9.50;-0.03;0.29;-0.45;-37.28;9.90;-56.09
12903;-2.03;1.40;9.86;-0.03;0.29;-0.45;-32.52;8.19;-50.48
12912;-1.30;2.07;10.21;-0.03;0.29;-0.45;-20.84;-1.35;-37.06
12921;0.09;2.93;10.48;-0.03;0.28;-0.44;10.20;-16.62;-19.05
12930;2.19;4.92;10.43;-0.03;0.28;-0.44;51.30;-32.31;2.71
12938;4.31;7.00;10.53;-0.03;0.28;-0.44;92.06;-37.92;23.20
12947;6.10;10.34;9.54;-0.04;0.30;-0.46;140.60;-29.28;44.76
12956;7.30;14.28;7.96;-0.04;0.30;-0.46;187.48;-1.70;60.03
12965;2.57;19.60;4.39;-0.04;0.30;-0.46;241.39;39.61;-14.49
12974;-1.22;19.60;4.06;-0.04;0.34;-0.45;248.18;36.48;-82.91
12982;-7.04;19.60;-3.18;-0.04;0.34;-0.45;198.78;-14.86;-205.08
12991;-15.76;19.60;-12.13;-0.04;0.34;-0.45;97.15;-81.80;-286.72
13000;-19.60;15.95;-16.25;-0.02;0.35;-0.45;-13.76;-201.04;-286.72
13009;-19.60;6.21;-14.74;-0.02;0.35;-0.45;-135.27;-286.72;-286.72
13018;-19.60;-17.71;-4.28;-0.02;0.35;-0.45;-286.72;-286.72;-286.72
13027;-19.60;-19.60;17.83;-0.07;0.32;-0.45;-286.72;-286.72;-286.72
13036;-19.60;-19.60;19.60;-0.07;0.32;-0.45;-286.72;-210.43;-286.72
13045;-11.73;-19.60;19.60;-0.07;0.32;-0.45;-286.72;116.08;133.68
13054;-18.54;-19.60;19.60;-0.09;0.15;-0.37;232.28;131.63;286.68
13062;-19.60;11.61;19.60;-0.09;0.15;-0.37;286.68;103.60;286.68
13071;-19.60;19.60;4.76;-0.08;0.22;-0.42;286.68;73.96;286.68
13080;-6.40;19.60;-4.08;-0.08;0.22;-0.42;286.68;103.66;286.68
13089;4.43;19.60;-12.91;-0.08;0.22;-0.42;-39.42;73.84;109.64
13098;7.46;19.60;-11.55;-0.05;0.26;-0.44;-286.72;25.45;-95.60
13107;2.34;12.98;-5.70;-0.05;0.26;-0.44;-247.49;-33.78;-126.12
13115;-4.71;4.09;5.51;-0.05;0.26;-0.44;-93.31;-87.53;-71.37
13124;-11.03;2.45;12.98;-0.07;0.23;-0.43;-27.58;-78.75;-67.74
13133;-10.39;-1.56;15.36;-0.07;0.23;-0.43;-62.61;-12.97;-55.53
13142;-7.59;-3.03;11.46;-0.07;0.23;-0.43;-65.39;48.69;-20.64
13151;-6.26;-1.73;6.78;-0.07;0.22;-0.43;5.79;72.25;26.93
13160;-5.87;2.26;3.53;-0.07;0.22;-0.43;58.71;49.85;61.87
13169;-4.83;6.83;3.16;-0.07;0.22;-0.43;64.16;17.77;53.37
13177;-4.88;8.16;4.24;-0.06;0.23;-0.44;14.95;-2.28;16.21
13186;-4.80;7.07;5.60;-0.06;0.23;-0.44;-34.85;-9.59;-18.94
13195;-4.85;3.96;6.75;-0.06;0.23;-0.44;-42.35;-20.28;-34.89
13204;-4.94;1.64;8.42;-0.06;0.23;-0.44;-20.52;-27.41;-30.72
13213;-5.08;0.20;9.53;-0.06;0.23;-0.44;-7.82;-21.79;-22.54
13222;-5.22;-0.54;9.57;-0.06;0.23;-0.44;-5.03;-13.63;-15.59
13231;-4.98;-0.69;9.30;-0.07;0.23;-0.44;-4.66;-5.57;-10.63
13240;-5.14;-0.51;9.03;-0.07;0.23;-0.44;-10.68;0.43;-8.72
13249;-5.26;0.15;8.77;-0.07;0.23;-0.44;-14.84;6.72;-5.41
13257;-5.26;0.79;7.91;-0.07;0.23;-0.44;-9.13;7.18;-2.73
13266;-5.42;1.30;7.47;-0.07;0.23;-0.44;-8.36;2.54;-3.31
13275;-5.82;1.24;7.85;-0.07;0.23;-0.44;-12.02;-6.86;-5.58
13284;-6.11;0.82;8.92;-0.06;0.23;-0.44;-12.43;-12.36;-6.91
13293;-6.66;0.09;9.65;-0.06;0.23;-0.44;-9.90;-13.27;-5.61
13302;-6.58;-0.29;10.00;-0.06;0.23;-0.43;-3.77;-7.98;-0.75
13311;-6.65;-0.25;9.93;-0.06;0.23;-0.43;2.35;-1.11;3.70
13320;-6.78;-0.11;9.59;-0.06;0.23;-0.43;2.51;6.74;5.57
13328;-6.96;-0.06;9.07;-0.06;0.23;-0.43;0.29;10.74;5.46
13337;-6.93;0.12;8.49;-0.06;0.23;-0.43;1.24;11.52;5.70
13346;-6.72;0.46;7.95;-0.06;0.23;-0.43;5.75;10.97;7.80
13355;-6.65;0.75;7.55;-0.07;0.22;-0.42;7.43;8.58;8.09
13364;-6.67;0.80;7.39;-0.07;0.22;-0.42;4.44;5.23;6.16
13372;-6.61;0.75;7.69;-0.07;0.22;-0.42;-1.26;4.80;5.42
13381;-6.58;0.74;7.89;-0.07;0.24;-0.44;-4.50;7.18;6.82
13390;-6.62;0.90;7.87;-0.07;0.24;-0.44;-2.00;8.29;9.48
13399;-6.30;1.43;7.59;-0.07;0.24;-0.44;5.33;9.64;13.97
13408;-6.10;1.71;7.23;-0.07;0.23;-0.44;12.57;9.45;16.23
13417;-5.97;1.89;7.03;-0.07;0.23;-0.44;12.54;8.22;15.93
13425;-5.96;1.92;7.07;-0.07;0.23;-0.44;7.16;6.12;10.38
13434;-5.85;1.87;7.25;-0.07;0.25;-0.43;-2.20;6.10;4.30
13443;-5.97;1.63;7.43;-0.07;0.25;-0.43;-5.77;5.88;-0.34
13452;-5.91;1.37;7.45;-0.07;0.25;-0.43;-6.78;4.66;-2.77
13461;-6.06;1.10;7.67;-0.07;0.25;-0.42;-7.14;2.42;-3.11
13470;-5.94;0.73;7.73;-0.07;0.25;-0.42;-7.10;1.12;-2.13
13479;-5.85;0.72;8.06;-0.07;0.25;-0.42;-8.64;1.92;0.85
13487;-5.74;1.11;8.27;-0.08;0.25;-0.44;-7.45;5.84;3.74
13496;-5.72;1.52;8.03;-0.08;0.25;-0.44;-1.79;8.13;5.84
13505;-5.47;1.85;7.74;-0.08;0.25;-0.44;3.69;8.24;6.91
13514;-5.45;1.85;7.52;-0.08;0.25;-0.45;6.91;7.81;6.38
13523;-5.30;1.68;7.38;-0.08;0.25;-0.45;7.93;6.68;4.93
13531;-5.20;1.22;7.11;-0.08;0.25;-0.45;7.01;5.89;2.21
13540;-5.34;0.85;7.07;-0.08;0.25;-0.44;-0.21;4.29;-1.22
13549;-5.51;0.82;7.27;-0.08;0.25;-0.44;-9.11;2.09;-2.84
13558;-5.60;0.89;7.80;-0.08;0.26;-0.43;-9.50;0.89;-2.60
13567;-5.62;1.00;8.02;-0.08;0.26;-0.43;-6.12;2.90;-0.19
13576;-5.75;1.23;7.93;-0.08;0.26;-0.43;-1.55;3.86;1.78
13585;-5.79;1.38;7.72;-0.07;0.26;-0.44;0.93;3.88;1.89
13593;-5.79;1.32;7.59;-0.07;0.26;-0.44;2.73;3.53;2.83
13602;-5.70;1.30;7.39;-0.07;0.26;-0.44;6.21;3.21;3.72
13611;-5.66;1.12;7.30;-0.07;0.26;-0.44;8.73;3.54;4.42
13620;-5.75;1.05;7.25;-0.07;0.26;-0.44;8.24;2.90;3.80
13629;-5.84;0.99;7.35;-0.07;0.26;-0.44;3.09;3.68;2.17
13638;-5.86;0.93;7.46;-0.07;0.26;-0.44;-4.66;6.16;-0.17
13646;-6.10;0.87;7.61;-0.07;0.26;-0.44;-10.04;7.78;-1.02
13655;-6.07;0.89;7.59;-0.07;0.26;-0.44;-8.34;7.51;0.73
13664;-5.83;1.11;7.65;-0.08;0.26;-0.45;-0.91;6.21;4.57
13673;-5.57;1.42;7.46;-0.08;0.26;-0.45;7.25;4.80;7.85
13682;-5.50;1.63;7.31;-0.08;0.26;-0.45;10.90;2.05;8.67
13691;-5.51;1.75;7.45;-0.08;0.26;-0.44;12.12;-0.70;8.29
13700;-5.29;1.69;7.56;-0.08;0.26;-0.44;10.92;-1.44;5.83
13709;-5.53;1.50;7.77;-0.08;0.26;-0.44;3.88;-0.45;2.91
13717;-5.69;1.30;7.91;-0.08;0.27;-0.44;-2.69;0.57;-0.97
13726;-5.80;0.98;8.10;-0.08;0.27;-0.44;-7.83;2.61;-2.90
13735;-5.98;0.66;8.15;-0.08;0.27;-0.44;-9.20;3.59;-2.62
13744;-5.89;0.62;8.02;-0.08;0.27;-0.44;-4.82;3.78;1.56
13753;-5.67;0.82;8.04;-0.08;0.27;-0.44;3.23;4.24;5.80
13762;-5.55;1.06;7.83;-0.08;0.27;-0.44;9.78;3.86;8.69
13771;-5.40;1.31;7.55;-0.08;0.26;-0.44;12.77;2.59;10.23
13779;-5.45;1.35;7.46;-0.08;0.26;-0.44;14.55;-0.09;9.53
13788;-5.47;1.37;7.61;-0.08;0.27;-0.44;12.78;-1.64;9.00
13797;-5.76;1.17;7.87;-0.08;0.27;-0.44;9.30;-2.20;5.94
13806;-5.79;0.95;7.95;-0.08;0.27;-0.44;5.13;-1.04;3.88
13815;-5.84;0.63;8.04;-0.09;0.28;-0.44;0.89;1.15;3.41
13824;-5.99;0.47;8.10;-0.09;0.28;-0.44;-0.71;4.43;4.37
13833;-5.96;0.40;7.94;-0.09;0.28;-0.44;1.78;5.54;5.22
13841;-5.99;0.24;7.87;-0.09;0.28;-0.44;2.27;6.82;6.32
13850;-6.16;0.18;7.86;-0.09;0.28;-0.44;-0.74;7.52;9.11
13859;-6.15;0.16;7.97;-0.09;0.28;-0.44;-1.40;8.14;11.21
13868;-6.34;0.13;8.14;-0.10;0.29;-0.44;-0.26;9.48;14.10
13877;-6.45;0.06;8.28;-0.10;0.29;-0.44;4.45;10.47;17.40
13886;-6.39;0.10;8.38;-0.10;0.29;-0.44;8.40;9.91;21.76
13895;-6.46;0.22;8.40;-0.09;0.29;-0.45;16.26;8.60;26.45
13904;-6.46;0.25;8.42;-0.09;0.29;-0.45;24.77;7.78;30.08
13912;-6.42;0.27;8.42;-0.09;0.29;-0.45;30.21;7.82;31.50
13921;-6.44;0.25;8.33;-0.10;0.30;-0.45;33.63;9.14;30.47
13930;-6.44;0.18;8.12;-0.10;0.30;-0.45;31.80;8.12;28.61
13939;-6.40;0.16;8.17;-0.10;0.30;-0.45;25.29;9.91;28.15
13948;-6.19;0.40;8.18;-0.10;0.32;-0.44;19.42;10.72;28.14
13957;-6.14;0.68;8.06;-0.10;0.32;-0.44;18.40;10.96;28.26
13966;-6.18;0.83;7.92;-0.10;0.32;-0.44;16.76;10.58;28.04
13975;-6.25;1.04;7.99;-0.11;0.32;-0.45;13.25;11.83;27.52
13984;-6.44;1.16;8.13;-0.11;0.32;-0.45;9.00;12.96;25.49
13992;-6.58;1.11;8.16;-0.11;0.32;-0.45;5.42;14.84;22.69
14001;-6.62;0.94;8.25;-0.11;0.33;-0.46;2.85;17.89;21.36
14010;-6.56;0.75;8.32;-0.11;0.33;-0.46;0.83;22.47;21.92
14019;-6.44;0.73;8.18;-0.11;0.33;-0.46;0.38;25.55;21.57
14028;-6.40;0.65;7.95;-0.10;0.33;-0.46;0.70;27.39;19.98
14036;-6.50;0.57;7.72;-0.10;0.33;-0.46;-1.94;29.07;19.47
14045;-6.30;0.47;7.52;-0.09;0.33;-0.45;-6.17;29.21;19.64
14054;-6.30;0.41;7.44;-0.09;0.33;-0.45;-9.30;30.63;19.77
14063;-6.18;0.40;7.49;-0.09;0.33;-0.45;-9.97;31.57;20.02
14072;-6.14;0.39;7.39;-0.09;0.33;-0.45;-8.71;32.47;21.63
14081;-6.14;0.36;7.44;-0.09;0.33;-0.45;-5.92;32.08;22.51
14090;-6.11;0.34;7.48;-0.09;0.33;-0.45;-1.59;30.11;24.72
14099;-6.17;0.34;7.49;-0.09;0.33;-0.46;3.94;27.57;27.41
14107;-6.13;0.34;7.68;-0.09;0.33;-0.46;11.07;25.13;29.90
14116;-5.96;0.41;7.68;-0.09;0.33;-0.46;13.10;25.54;33.19
14125;-5.74;0.54;7.56;-0.08;0.34;-0.46;13.06;25.88;35.94
14134;-5.65;0.70;7.57;-0.08;0.34;-0.46;10.00;25.88;34.99
14143;-5.67;0.99;7.56;-0.08;0.34;-0.46;7.26;26.90;30.38
14152;-5.46;0.91;7.52;-0.08;0.34;-0.45;4.96;28.19;24.14
14160;-5.39;0.63;7.34;-0.08;0.34;-0.45;-2.03;29.20;19.18
14169;-5.36;0.52;7.34;-0.08;0.34;-0.45;-5.78;30.27;17.18
14178;-5.45;0.63;7.38;-0.08;0.35;-0.46;-9.74;28.57;16.88
14187;-5.22;0.75;7.49;-0.08;0.35;-0.46;-11.33;29.68;15.66
14196;-5.27;0.70;7.70;-0.08;0.35;-0.46;-12.42;30.06;15.00
14205;-5.63;0.81;8.10;-0.07;0.34;-0.46;-12.12;28.72;12.34
14213;-5.64;0.62;8.37;-0.07;0.34;-0.46;-9.25;26.50;9.97
14222;-5.88;0.51;8.72;-0.07;0.34;-0.46;-4.45;23.93;12.07
14231;-5.81;0.44;8.82;-0.07;0.35;-0.46;1.56;22.55;18.46
14240;-5.80;0.41;8.75;-0.07;0.35;-0.46;10.36;21.34;24.89
14249;-5.57;0.24;8.45;-0.07;0.35;-0.46;20.13;19.62;28.81
14258;-5.36;0.15;8.26;-0.07;0.35;-0.47;25.80;20.48;35.13
14266;-4.85;-0.07;8.00;-0.07;0.35;-0.47;28.01;19.33;36.99
14275;-4.55;0.04;7.71;-0.07;0.39;-0.46;25.69;20.79;36.03
14284;-4.31;0.05;7.55;-0.06;0.36;-0.46;20.92;22.45;33.10
14293;-4.20;0.00;7.44;-0.06;0.36;-0.46;13.53;23.94;28.05
14302;-4.10;-0.09;7.44;-0.06;0.36;-0.46;4.13;24.01;23.63
14310;-4.13;-0.18;7.43;-0.06;0.36;-0.46;-6.06;23.77;21.24
14319;-4.08;-0.26;7.48;-0.06;0.36;-0.46;-12.68;21.94;18.22
14328;-3.84;-0.29;7.70;-0.06;0.36;-0.47;-16.27;20.77;16.91
14337;-3.91;-0.33;8.01;-0.06;0.36;-0.47;-16.42;19.35;15.99
14346;-3.97;-0.40;8.19;-0.06;0.36;-0.47;-14.67;17.24;14.37
14355;-3.89;-0.48;8.32;-0.06;0.35;-0.47;-12.22;15.56;15.49
14363;-3.77;-0.59;8.52;-0.06;0.35;-0.47;-11.27;13.82;18.54
14372;-3.72;-0.73;8.63;-0.06;0.35;-0.47;-10.78;12.61;20.68
14381;-4.03;-0.76;8.79;-0.05;0.35;-0.46;-5.99;8.82;22.51
14390;-3.93;-0.79;8.95;-0.05;0.35;-0.46;2.57;4.69;23.04
14399;-3.84;-0.85;8.97;-0.05;0.35;-0.46;9.33;2.35;23.34
14408;-3.93;-0.80;8.80;-0.05;0.35;-0.47;11.67;1.30;22.85
14416;-3.90;-0.75;8.67;-0.05;0.35;-0.47;11.10;1.15;21.92
14425;-3.80;-0.87;8.46;-0.05;0.35;-0.47;6.76;1.35;21.63
14434;-3.69;-1.09;8.54;-0.05;0.36;-0.47;1.92;1.03;19.40
14443;-3.66;-1.30;8.48;-0.05;0.36;-0.47;-2.62;0.04;19.29
14452;-3.66;-1.38;8.59;-0.05;0.36;-0.47;-7.48;0.04;21.25
14461;-3.51;-1.46;8.67;-0.06;0.36;-0.48;-7.72;-0.75;24.10
14469;-3.35;-1.40;8.77;-0.06;0.36;-0.48;-4.92;-0.83;26.06
14478;-3.31;-1.28;8.78;-0.06;0.36;-0.48;0.35;-2.13;27.12
14487;-3.13;-1.30;8.70;-0.05;0.35;-0.47;2.50;-3.67;24.04
14496;-3.25;-1.22;8.49;-0.05;0.35;-0.47;1.49;-4.37;22.02
14505;-3.43;-1.19;8.15;-0.05;0.35;-0.47;2.78;-5.67;25.18
14513;-3.50;-1.20;8.02;-0.05;0.36;-0.46;4.82;-9.59;26.32
14522;-3.60;-1.07;8.14;-0.05;0.36;-0.46;7.28;-17.62;21.60
14531;-3.73;-1.13;8.27;-0.05;0.36;-0.46;10.25;-21.10;17.66
14540;-3.70;-1.25;8.56;-0.05;0.35;-0.46;11.32;-24.20;16.94
14549;-3.62;-1.33;8.80;-0.05;0.35;-0.46;12.12;-23.23;18.99
14558;-3.71;-1.26;8.86;-0.06;0.36;-0.47;14.08;-20.80;20.64
14566;-3.68;-1.19;8.78;-0.06;0.36;-0.47;15.27;-19.25;20.47
14575;-3.53;-1.28;8.93;-0.06;0.36;-0.47;12.98;-17.67;18.07
14584;-3.46;-1.31;9.15;-0.07;0.36;-0.47;2.93;-12.79;14.48
14593;-3.34;-1.25;9.44;-0.07;0.36;-0.47;-8.34;-5.87;11.71
14602;-3.38;-0.99;9.57;-0.07;0.36;-0.47;-19.78;0.13;7.33
14611;-3.50;-0.83;9.64;-0.07;0.37;-0.46;-29.07;4.61;3.34
14619;-3.60;-0.91;9.77;-0.07;0.37;-0.46;-29.01;6.76;-0.86
14628;-3.70;-0.70;9.76;-0.07;0.37;-0.46;-26.31;6.69;-1.01
14637;-3.74;-0.68;9.89;-0.06;0.35;-0.46;-19.44;5.67;1.39
14646;-3.75;-0.73;9.70;-0.06;0.35;-0.46;-7.67;3.88;4.32
14655;-3.59;-0.73;9.63;-0.06;0.35;-0.46;6.47;1.04;5.57
14663;-3.53;-0.76;9.56;-0.06;0.36;-0.47;18.21;-0.34;5.84
14672;-3.38;-0.80;9.70;-0.06;0.36;-0.47;20.54;-0.67;5.04
14681;-3.36;-0.82;9.84;-0.06;0.36;-0.47;11.87;1.58;2.89
14690;-3.30;-0.86;10.03;-0.06;0.36;-0.46;2.04;5.57;2.90
14699;-3.21;-0.90;10.32;-0.06;0.36;-0.46;-1.74;8.27;1.23
14707;-3.19;-0.91;10.51;-0.06;0.36;-0.46;-1.31;10.53;0.48
14716;-2.93;-1.13;10.54;-0.06;0.36;-0.47;4.36;12.49;1.48
14725;-3.17;-1.21;10.65;-0.06;0.36;-0.47;12.64;16.80;4.49
14734;-2.97;-1.31;10.36;-0.06;0.36;-0.47;24.12;18.99;7.96
14743;-2.85;-1.35;9.91;-0.05;0.37;-0.47;34.88;20.95;10.39
14751;-2.89;-1.15;9.44;-0.05;0.37;-0.47;42.80;18.21;11.34
14760;-2.82;-1.24;8.98;-0.05;0.37;-0.47;45.58;18.75;9.64
14769;-2.83;-1.31;8.83;-0.05;0.37;-0.46;41.46;19.30;7.45
14778;-3.10;-1.43;8.78;-0.05;0.37;-0.46;32.91;17.74;6.11
14787;-3.02;-1.54;8.71;-0.05;0.37;-0.46;25.94;17.02;3.74
14795;-3.15;-1.61;9.01;-0.05;0.38;-0.48;18.98;14.69;0.35
14804;-3.27;-1.69;9.16;-0.05;0.38;-0.48;12.56;12.42;-2.13
14813;-2.92;-1.91;9.49;-0.05;0.38;-0.48;9.70;13.01;1.87
14822;-3.00;-2.00;9.68;-0.04;0.38;-0.47;10.89;15.96;3.66
14830;-2.92;-2.08;9.49;-0.04;0.38;-0.47;13.99;18.53;6.79
14839;-3.01;-1.97;9.21;-0.04;0.38;-0.48;15.87;21.11;10.23
14848;-2.98;-1.85;8.89;-0.04;0.38;-0.48;18.37;18.03;11.47
14857;-3.07;-1.88;8.50;-0.04;0.38;-0.48;20.77;17.67;12.28
14866;-2.98;-1.95;8.25;-0.03;0.38;-0.46;20.13;15.77;13.65
14875;-3.03;-2.00;8.17;-0.03;0.38;-0.46;15.09;13.42;13.95
14883;-2.78;-2.04;8.12;-0.03;0.38;-0.46;7.53;11.16;15.51
14892;-2.63;-1.99;8.28;-0.04;0.39;-0.47;2.68;9.65;16.21
14901;-2.53;-1.58;8.33;-0.04;0.39;-0.47;3.38;7.28;11.45
14910;-2.30;-1.56;8.33;-0.04;0.39;-0.47;5.99;4.53;6.92
14918;-2.25;-1.56;8.50;-0.03;0.39;-0.48;8.18;4.10;1.78
14927;-2.06;-1.79;8.48;-0.03;0.39;-0.48;4.93;6.72;-0.50
14936;-1.99;-1.79;8.62;-0.03;0.39;-0.48;-0.01;13.21;-2.56
14945;-2.12;-1.64;8.54;-0.03;0.39;-0.47;-2.35;13.10;-2.58
14954;-2.09;-1.68;8.40;-0.03;0.39;-0.47;-4.88;12.15;-1.67
14963;-2.12;-1.72;8.34;-0.03;0.39;-0.47;-8.15;9.96;-3.84
14971;-2.21;-1.61;8.30;-0.03;0.39;-0.46;-10.56;7.12;-5.22
14980;-2.37;-1.51;8.57;-0.03;0.39;-0.46;-11.10;4.11;-6.89
14989;-2.47;-1.42;8.71;-0.03;0.39;-0.46;-10.73;2.44;-5.76
14998;-2.49;-1.37;8.79;-0.02;0.38;-0.48;-9.14;2.55;-4.00
complete
