Time(ms);AccX(m/s^2);AccY(m/s^2);AccZ(m/s^2);MagX(gauss);MagY(gauss);MagZ(gauss);GyroX(dps);GyroY(dps);GyroZ(dps)
33;1.36;-9.55;1.85;0.19;0.73;-0.18;-4.59;-6.09;-1.12
42;1.35;-9.54;1.90;0.19;0.73;-0.18;-5.07;-5.51;-1.44
50;1.32;-9.61;1.96;0.19;0.73;-0.18;-5.09;-5.06;-1.68
59;1.32;-9.63;1.99;0.19;0.73;-0.20;-4.34;-4.30;-1.52
68;1.28;-9.59;1.97;0.19;0.73;-0.20;-3.55;-4.30;-1.68
77;1.27;-9.62;1.96;0.19;0.73;-0.20;-3.18;-4.91;-1.92
86;1.25;-9.59;2.02;0.19;0.73;-0.19;-3.42;-5.56;-2.00
94;1.25;-9.62;1.99;0.19;0.73;-0.19;-3.86;-6.02;-1.67
103;1.30;-9.62;2.03;0.19;0.73;-0.19;-4.72;-5.28;-1.86
112;1.31;-9.66;2.11;0.19;0.73;-0.18;-4.72;-4.11;-1.64
121;1.33;-9.66;2.06;0.19;0.73;-0.18;-4.24;-3.85;-1.51
130;1.31;-9.62;2.09;0.19;0.73;-0.18;-3.49;-3.75;-1.97
138;1.34;-9.67;2.13;0.20;0.73;-0.19;-3.22;-3.15;-2.14
147;1.33;-9.64;2.10;0.20;0.73;-0.19;-2.64;-2.45;-2.14
156;1.37;-9.58;1.99;0.19;0.74;-0.18;-1.91;-1.18;-2.26
165;1.34;-9.52;1.99;0.19;0.74;-0.18;-1.65;-0.20;-2.78
174;1.31;-9.58;1.95;0.19;0.74;-0.18;-1.38;0.60;-3.14
183;1.25;-9.57;1.96;0.20;0.74;-0.19;-0.52;1.63;-3.01
191;1.20;-9.59;2.05;0.20;0.74;-0.19;0.14;1.92;-3.14
200;1.23;-9.61;1.88;0.20;0.74;-0.19;0.83;1.15;-3.15
209;1.26;-9.64;1.84;0.20;0.73;-0.19;1.01;0.65;-3.23
218;1.23;-9.67;1.89;0.20;0.73;-0.19;0.60;0.72;-2.73
227;1.23;-9.80;1.86;0.20;0.73;-0.19;0.34;1.15;-2.34
236;1.24;-9.66;1.94;0.20;0.73;-0.19;-0.30;1.14;-2.16
244;1.28;-9.63;1.87;0.20;0.73;-0.19;-0.73;1.21;-2.09
253;1.31;-9.80;1.91;0.20;0.73;-0.19;-1.30;1.89;-1.86
262;1.37;-9.62;1.98;0.19;0.73;-0.18;-1.52;2.20;-1.77
271;1.43;-9.59;1.98;0.19;0.73;-0.18;-1.10;2.90;-1.87
280;1.48;-9.56;1.93;0.19;0.73;-0.18;-1.03;3.26;-2.16
289;1.50;-9.58;1.86;0.19;0.73;-0.19;-0.01;2.70;-2.38
297;1.53;-9.58;1.89;0.19;0.73;-0.19;1.44;1.34;-3.31
306;1.55;-9.53;1.90;0.19;0.73;-0.19;3.96;-0.89;-4.34
315;1.68;-9.53;1.86;0.19;0.74;-0.18;5.68;-3.23;-5.44
324;1.71;-9.50;1.79;0.19;0.74;-0.18;6.85;-5.14;-6.41
333;1.78;-9.37;1.75;0.19;0.74;-0.18;7.63;-5.74;-7.46
342;1.92;-9.41;1.75;0.19;0.73;-0.19;8.02;-6.00;-8.91
350;1.91;-9.35;1.62;0.19;0.73;-0.19;9.10;-6.46;-9.98
359;1.90;-9.35;1.60;0.19;0.73;-0.19;10.15;-7.17;-10.90
368;1.87;-9.34;1.63;0.18;0.74;-0.18;10.75;-8.31;-11.67
377;1.92;-9.38;1.57;0.18;0.74;-0.18;11.15;-9.80;-11.86
386;1.99;-9.36;1.65;0.18;0.74;-0.18;11.34;-10.85;-12.49
395;2.10;-9.41;1.65;0.19;0.74;-0.19;10.89;-12.42;-13.16
403;2.19;-9.40;1.69;0.19;0.74;-0.19;9.86;-13.36;-14.18
412;2.40;-9.46;1.80;0.18;0.74;-0.20;9.28;-13.34;-15.23
421;2.44;-9.52;1.91;0.18;0.74;-0.20;8.12;-12.68;-16.39
430;2.47;-9.58;1.89;0.18;0.74;-0.20;5.81;-11.11;-17.00
439;2.48;-9.62;2.02;0.17;0.75;-0.19;0.41;-7.04;-17.81
447;2.65;-9.68;1.96;0.17;0.75;-0.19;-2.41;-2.90;-17.64
456;2.65;-9.65;2.01;0.17;0.75;-0.19;-6.84;2.48;-17.20
465;2.71;-9.64;2.03;0.17;0.75;-0.19;-13.28;7.97;-17.13
474;2.66;-9.64;2.00;0.17;0.75;-0.19;-13.80;10.61;-17.92
483;2.72;-9.67;2.07;0.17;0.75;-0.19;-11.65;10.12;-19.29
491;2.64;-9.69;1.87;0.17;0.74;-0.20;-8.30;7.50;-22.05
500;2.69;-9.89;1.82;0.17;0.74;-0.20;-4.76;3.97;-24.13
509;2.49;-9.96;1.79;0.17;0.74;-0.20;-1.71;-0.44;-26.42
518;2.41;-10.08;1.72;0.17;0.74;-0.18;2.02;-3.58;-27.83
527;2.34;-10.02;1.66;0.17;0.74;-0.18;3.74;-4.59;-29.09
536;2.26;-9.97;1.68;0.17;0.74;-0.18;1.35;-2.99;-30.69
544;2.25;-9.86;1.57;0.17;0.75;-0.19;-3.43;-0.24;-31.33
553;2.22;-9.81;1.48;0.17;0.75;-0.19;-9.54;4.45;-31.15
562;2.21;-9.72;1.55;0.17;0.75;-0.19;-18.16;9.69;-30.28
571;2.42;-9.64;1.58;0.16;0.74;-0.19;-26.17;15.09;-28.53
580;2.54;-9.64;1.68;0.16;0.74;-0.19;-33.17;20.17;-27.05
589;2.49;-9.71;1.67;0.16;0.74;-0.19;-38.03;22.06;-26.24
597;2.28;-9.80;1.62;0.16;0.75;-0.20;-38.52;19.40;-27.21
606;2.35;-9.80;1.52;0.16;0.75;-0.20;-37.15;13.90;-28.24
615;2.23;-9.74;1.64;0.16;0.75;-0.20;-34.32;7.06;-31.91
624;2.10;-9.65;1.71;0.16;0.75;-0.20;-32.92;0.79;-36.77
633;2.16;-9.60;1.77;0.16;0.75;-0.20;-36.07;-2.69;-40.62
641;2.20;-9.50;1.91;0.16;0.75;-0.20;-45.06;-1.94;-42.59
650;2.28;-9.31;1.94;0.15;0.75;-0.20;-56.42;2.11;-45.57
659;2.29;-9.05;2.03;0.15;0.75;-0.20;-70.61;6.82;-51.00
668;2.21;-8.94;2.19;0.15;0.75;-0.21;-88.93;13.69;-54.04
677;2.06;-8.76;2.58;0.13;0.75;-0.21;-105.88;23.27;-53.38
685;2.00;-8.47;2.69;0.13;0.75;-0.21;-123.72;35.15;-52.37
694;1.89;-8.11;3.05;0.13;0.73;-0.22;-145.52;45.68;-52.70
703;1.85;-7.93;3.37;0.13;0.73;-0.22;-169.19;54.58;-52.26
712;2.20;-7.48;3.70;0.13;0.73;-0.22;-187.60;59.39;-51.10
721;3.05;-6.80;3.98;0.12;0.74;-0.26;-204.01;59.29;-53.19
729;4.32;-5.83;4.27;0.12;0.74;-0.26;-220.87;51.53;-58.63
738;6.57;-4.95;4.30;0.12;0.74;-0.26;-229.70;43.50;-67.94
747;9.54;-3.49;3.95;0.11;0.71;-0.29;-238.87;42.21;-82.72
756;11.76;-1.00;3.36;0.11;0.71;-0.29;-259.12;60.17;-92.00
765;13.23;2.23;2.89;0.11;0.71;-0.29;-286.72;99.14;-98.54
774;12.98;6.32;2.02;0.11;0.68;-0.33;-286.72;153.95;-113.57
782;10.01;10.31;1.23;0.11;0.68;-0.33;-286.72;213.91;-145.64
791;4.74;13.63;0.15;0.11;0.68;-0.33;-286.72;236.07;-195.12
800;-3.98;16.01;1.22;0.13;0.60;-0.37;-286.72;222.44;-252.15
809;-14.79;17.46;5.63;0.13;0.60;-0.37;-286.72;196.45;-268.41
818;-19.60;17.53;12.41;0.13;0.60;-0.37;-286.72;147.45;-230.39
827;-19.60;15.76;19.60;0.15;0.46;-0.41;-286.72;102.37;-169.24
835;-19.60;12.04;19.60;0.15;0.46;-0.41;-286.72;69.84;-108.46
844;-17.92;5.10;19.60;0.15;0.46;-0.41;-286.72;35.61;-112.60
853;-15.25;0.19;19.60;0.16;0.27;-0.40;-286.72;-6.60;-150.16
862;-11.93;-19.60;19.60;0.16;0.27;-0.40;-286.72;23.03;-177.94
870;-14.68;-19.60;19.60;0.16;0.27;-0.40;-158.30;128.90;-102.79
879;-19.01;-19.60;19.60;0.19;0.20;-0.40;153.92;145.55;70.81
888;-17.40;-8.19;10.58;0.19;0.20;-0.40;286.68;56.49;186.18
897;-8.44;10.15;4.48;0.19;0.20;-0.40;286.68;-37.28;186.09
906;0.56;18.89;2.73;0.20;0.21;-0.39;218.40;-29.94;145.63
915;5.00;19.60;1.50;0.20;0.21;-0.39;24.53;44.08;102.45
923;4.71;18.48;-0.15;0.20;0.21;-0.39;-97.25;80.33;41.19
932;3.58;13.94;0.60;0.20;0.22;-0.40;-105.11;39.85;-8.31
941;2.14;9.01;4.00;0.20;0.22;-0.40;-53.91;-9.60;-43.01
950;0.35;4.79;8.07;0.20;0.22;-0.39;-21.67;-31.56;-48.74
959;-0.98;1.83;10.50;0.19;0.21;-0.39;-24.41;-22.87;-36.95
967;-1.18;-0.18;10.88;0.19;0.21;-0.39;-33.83;8.90;-20.99
976;-1.63;-0.63;9.82;0.20;0.22;-0.39;-19.65;28.75;-4.93
985;-1.78;0.25;8.35;0.20;0.22;-0.39;11.87;26.28;8.56
994;-0.70;2.06;6.82;0.20;0.22;-0.39;48.95;8.41;14.05
1003;0.46;3.78;5.86;0.20;0.23;-0.38;71.59;-9.38;13.63
1011;1.42;5.13;6.11;0.20;0.23;-0.38;66.84;-21.64;10.24
1020;2.18;5.31;6.47;0.20;0.23;-0.38;46.53;-22.43;3.84
1029;2.19;4.68;7.10;0.19;0.24;-0.39;16.61;-20.14;-0.79
1038;1.95;3.69;8.06;0.19;0.24;-0.39;-4.81;-14.53;-0.75
1046;1.98;2.82;8.64;0.19;0.24;-0.39;-20.66;-7.92;2.05
1055;1.71;2.44;9.07;0.19;0.24;-0.40;-31.09;0.77;0.09
1064;1.57;2.10;9.22;0.19;0.24;-0.40;-38.78;6.19;0.36
1073;1.43;1.97;9.32;0.19;0.24;-0.40;-37.18;6.52;0.28
1082;1.41;2.07;9.53;0.19;0.23;-0.39;-27.93;2.35;-0.87
1091;1.31;2.15;9.77;0.19;0.23;-0.39;-15.23;-4.22;-2.95
1099;1.22;2.12;10.15;0.19;0.23;-0.39;-6.01;-8.52;-4.81
1108;0.91;1.97;10.54;0.19;0.22;-0.40;-0.94;-10.20;-6.51
1117;0.58;1.65;10.88;0.19;0.22;-0.40;3.20;-11.57;-5.83
1126;0.39;1.48;11.26;0.19;0.22;-0.40;9.98;-11.46;-4.40
1135;0.19;1.49;11.31;0.18;0.23;-0.41;16.85;-9.13;-3.46
1143;-0.12;1.50;11.01;0.18;0.23;-0.41;23.57;-6.24;-2.53
1152;-0.28;1.38;10.68;0.18;0.23;-0.41;30.64;-5.03;-1.13
1161;-0.28;1.34;10.43;0.19;0.24;-0.40;38.21;-5.09;0.81
1170;-0.47;1.33;10.33;0.19;0.24;-0.40;48.20;-6.42;2.45
1179;-0.61;1.33;10.36;0.19;0.24;-0.40;59.57;-8.46;4.93
1187;-0.90;1.17;10.51;0.18;0.25;-0.41;74.63;-10.45;7.74
1196;-1.20;0.83;10.80;0.18;0.25;-0.41;91.83;-13.81;11.31
1205;-1.63;0.50;11.04;0.18;0.25;-0.41;113.86;-17.96;17.10
1214;-2.19;0.13;11.20;0.18;0.27;-0.42;141.93;-22.01;23.99
1223;-2.62;0.03;11.23;0.18;0.27;-0.42;167.54;-27.52;32.22
1231;-3.03;-0.03;11.25;0.18;0.27;-0.42;192.08;-32.34;41.47
1240;-3.27;0.35;11.14;0.18;0.30;-0.42;217.41;-37.55;48.34
1249;-3.13;0.49;10.59;0.18;0.30;-0.42;236.03;-43.62;51.36
1258;-2.99;0.47;10.20;0.16;0.34;-0.43;244.90;-48.13;53.07
1267;-3.04;0.54;9.96;0.16;0.34;-0.43;242.14;-49.10;56.72
1275;-2.63;0.48;9.89;0.16;0.34;-0.43;229.33;-45.42;59.76
1284;-2.44;0.42;10.07;0.15;0.38;-0.44;215.71;-41.01;62.29
1293;-2.37;0.28;10.41;0.15;0.38;-0.44;205.07;-36.44;63.51
1302;-2.29;0.07;10.79;0.15;0.38;-0.44;198.90;-32.17;62.53
1311;-2.13;-0.35;10.93;0.14;0.42;-0.43;200.07;-27.58;60.89
1320;-2.25;-0.73;10.76;0.14;0.42;-0.43;205.83;-23.86;60.35
1328;-2.16;-1.33;10.42;0.14;0.42;-0.43;215.28;-25.11;60.93
1337;-2.13;-1.97;9.63;0.14;0.46;-0.43;229.28;-31.87;59.91
1346;-2.14;-2.38;8.94;0.14;0.46;-0.43;241.58;-40.25;59.84
1355;-1.84;-2.79;8.39;0.14;0.46;-0.43;248.08;-48.18;60.47
1363;-1.82;-2.91;8.00;0.13;0.50;-0.41;243.01;-54.08;61.73
1372;-1.63;-2.96;7.83;0.13;0.50;-0.41;229.28;-53.41;61.96
1381;-1.25;-3.39;7.71;0.13;0.50;-0.41;209.58;-48.60;60.57
1390;-1.32;-3.60;7.91;0.12;0.53;-0.41;189.64;-37.56;57.99
1399;-1.35;-3.96;8.04;0.12;0.53;-0.41;169.89;-26.99;56.57
1407;-1.14;-4.49;7.97;0.12;0.53;-0.41;159.98;-20.83;55.53
1416;-1.21;-4.82;8.06;0.12;0.56;-0.39;158.24;-18.19;54.01
1425;-1.21;-5.24;7.98;0.12;0.56;-0.39;162.24;-21.92;53.31
1434;-1.12;-5.59;7.75;0.12;0.56;-0.39;171.60;-26.57;53.58
1443;-1.13;-5.71;7.41;0.13;0.60;-0.38;180.38;-34.17;50.15
1452;-1.22;-5.91;7.20;0.13;0.60;-0.38;187.34;-43.26;44.82
1460;-1.29;-5.97;6.93;0.13;0.60;-0.38;190.22;-50.21;39.92
1469;-1.35;-6.12;6.82;0.12;0.63;-0.37;188.45;-52.96;35.57
1478;-1.39;-6.18;6.62;0.12;0.63;-0.37;179.51;-53.21;35.03
1487;-1.46;-6.60;6.59;0.12;0.63;-0.37;168.76;-48.42;35.75
1496;-1.26;-7.03;6.50;0.11;0.65;-0.34;158.08;-43.05;40.98
1505;-1.27;-7.39;6.25;0.11;0.65;-0.34;150.64;-40.56;48.74
1513;-1.10;-7.65;6.23;0.11;0.65;-0.34;149.39;-41.86;52.74
1522;-0.76;-7.82;5.99;0.11;0.67;-0.32;154.07;-43.58;51.05
1531;-0.37;-7.92;5.65;0.11;0.67;-0.32;161.24;-47.87;45.67
1540;-0.15;-7.87;5.29;0.11;0.69;-0.30;161.40;-50.44;41.64
1549;-0.01;-7.96;4.69;0.11;0.69;-0.30;153.61;-49.94;39.62
1557;0.12;-7.94;4.34;0.11;0.69;-0.30;135.53;-45.48;39.09
1566;0.18;-8.02;4.11;0.12;0.71;-0.30;111.80;-36.90;38.74
1575;0.04;-8.29;4.17;0.12;0.71;-0.30;91.29;-28.65;38.39
1584;-0.20;-8.57;4.19;0.12;0.71;-0.30;77.35;-24.05;43.51
1593;-0.48;-8.74;4.19;0.12;0.72;-0.29;69.54;-24.47;53.10
1601;-0.40;-8.78;4.10;0.12;0.72;-0.29;68.91;-30.34;58.83
1610;-0.15;-8.82;4.12;0.12;0.72;-0.29;76.47;-40.63;59.66
1619;0.27;-8.87;4.07;0.12;0.72;-0.26;87.89;-52.89;56.70
1628;0.68;-8.77;3.99;0.12;0.72;-0.26;100.68;-57.61;52.80
1637;1.07;-8.61;3.71;0.12;0.72;-0.26;102.45;-58.56;46.41
1645;1.28;-8.65;3.83;0.12;0.73;-0.26;97.61;-52.36;39.80
1654;1.54;-8.70;3.75;0.12;0.73;-0.26;86.07;-37.83;36.06
1663;1.58;-8.72;3.75;0.12;0.73;-0.26;67.17;-19.67;36.28
1672;1.52;-8.45;3.46;0.12;0.73;-0.26;50.69;-3.66;35.89
1681;1.30;-8.38;3.39;0.12;0.73;-0.26;38.04;7.69;31.71
1689;1.00;-8.46;3.37;0.12;0.73;-0.26;30.34;13.66;27.09
1698;0.68;-8.87;3.33;0.13;0.73;-0.26;31.57;10.86;23.39
1707;0.52;-8.99;3.35;0.13;0.73;-0.26;38.41;3.42;19.73
1716;0.56;-9.22;3.45;0.13;0.73;-0.26;50.96;-9.74;17.78
1725;0.70;-9.43;3.48;0.13;0.74;-0.25;66.10;-19.44;18.32
1734;0.93;-9.33;3.26;0.13;0.74;-0.25;76.91;-27.06;18.39
1743;1.30;-9.30;3.22;0.13;0.74;-0.25;84.20;-31.50;15.97
1751;1.61;-9.16;3.00;0.13;0.76;-0.23;84.00;-29.49;13.50
1760;2.11;-9.13;2.84;0.13;0.76;-0.23;76.50;-21.60;11.59
1769;2.17;-9.07;2.89;0.13;0.76;-0.23;61.51;-6.93;11.36
1778;2.28;-9.09;2.80;0.13;0.76;-0.22;43.93;6.96;10.02
1787;2.01;-9.21;2.75;0.13;0.76;-0.22;30.28;18.26;9.23
1795;1.71;-9.61;3.00;0.13;0.76;-0.21;23.57;23.01;8.81
1804;1.54;-10.11;3.03;0.14;0.76;-0.21;29.68;22.07;13.13
1813;1.32;-10.24;2.94;0.14;0.76;-0.21;43.18;17.82;17.36
1822;1.42;-10.20;2.53;0.14;0.75;-0.21;60.86;8.87;19.24
1831;1.49;-9.91;2.00;0.14;0.75;-0.21;80.37;-1.87;17.47
1839;1.71;-9.63;1.38;0.14;0.75;-0.21;90.43;-9.66;13.48
1848;1.88;-9.29;0.90;0.14;0.76;-0.20;92.82;-13.34;9.27
1857;1.96;-9.10;0.51;0.14;0.76;-0.20;86.18;-12.08;6.37
1866;1.97;-9.09;0.31;0.14;0.76;-0.20;71.10;-6.36;4.48
1875;2.14;-9.16;0.02;0.15;0.77;-0.18;55.60;-0.10;2.67
1884;1.85;-9.18;-0.10;0.15;0.77;-0.18;41.98;5.13;0.78
1892;1.69;-9.46;0.05;0.15;0.77;-0.18;30.47;8.68;0.23
1901;1.59;-9.73;0.13;0.14;0.77;-0.18;25.76;10.11;4.37
1910;1.49;-9.87;0.21;0.14;0.77;-0.18;26.74;8.93;4.78
1919;1.38;-9.85;0.18;0.14;0.77;-0.18;31.91;3.25;4.24
1928;1.37;-9.89;0.16;0.15;0.78;-0.17;37.10;-3.34;2.84
1936;1.20;-9.77;0.19;0.15;0.78;-0.17;39.02;-10.44;3.26
1945;1.12;-9.75;0.19;0.15;0.78;-0.17;35.97;-15.70;5.37
1954;1.11;-9.63;0.39;0.14;0.78;-0.16;26.22;-17.53;6.76
1963;1.25;-9.50;0.50;0.14;0.78;-0.16;13.90;-15.72;5.39
1972;1.33;-9.68;0.82;0.14;0.78;-0.16;1.99;-9.16;2.86
1981;1.39;-9.91;1.12;0.14;0.78;-0.16;-9.36;-1.18;2.17
1989;1.25;-9.97;1.27;0.14;0.78;-0.16;-15.68;6.44;1.72
1998;1.14;-10.09;1.38;0.14;0.78;-0.16;-17.65;11.06;-1.24
2007;0.83;-10.30;1.40;0.15;0.78;-0.16;-13.56;11.16;-2.58
2016;0.60;-10.43;1.37;0.15;0.78;-0.16;-10.53;8.08;-1.84
2025;0.48;-10.46;1.25;0.15;0.78;-0.16;-4.21;1.23;0.65
2033;0.42;-10.40;1.21;0.15;0.78;-0.17;2.84;-7.99;2.12
2042;0.39;-10.24;1.08;0.15;0.78;-0.17;10.70;-15.02;3.57
2051;0.41;-9.94;0.94;0.15;0.78;-0.17;15.54;-19.84;4.59
2060;0.56;-9.67;0.81;0.14;0.77;-0.14;16.51;-22.05;4.70
2068;0.67;-9.50;0.87;0.14;0.77;-0.14;14.03;-19.77;3.06
2077;0.76;-9.33;0.78;0.14;0.77;-0.16;7.69;-14.45;2.27
2086;0.88;-9.25;0.81;0.15;0.77;-0.16;-0.90;-6.94;2.36
2095;1.03;-9.27;0.97;0.15;0.77;-0.16;-9.58;3.20;3.13
2104;1.05;-9.29;1.06;0.15;0.78;-0.16;-17.17;10.71;4.51
2112;1.04;-9.39;1.05;0.15;0.78;-0.16;-17.93;14.57;4.93
2121;0.99;-9.44;1.07;0.15;0.78;-0.16;-13.06;11.40;4.71
2130;1.00;-9.46;0.91;0.14;0.78;-0.17;-4.21;6.99;3.72
2139;1.04;-9.41;0.67;0.14;0.78;-0.17;3.63;-0.70;2.65
2148;1.17;-9.32;0.65;0.14;0.78;-0.17;8.78;-6.97;1.26
2156;1.32;-9.24;0.67;0.15;0.78;-0.16;9.50;-9.91;-0.35
2165;1.40;-9.15;0.52;0.15;0.78;-0.16;6.40;-9.61;-1.76
2174;1.52;-9.11;0.58;0.15;0.78;-0.16;2.48;-7.60;-3.80
2183;1.55;-9.18;0.70;0.14;0.78;-0.16;-1.68;-3.24;-5.94
2192;1.55;-9.30;0.85;0.14;0.78;-0.16;-5.07;3.18;-6.73
2200;1.44;-9.42;0.92;0.14;0.78;-0.16;-6.75;7.82;-6.71
2209;1.34;-9.55;0.95;0.15;0.78;-0.16;-4.81;10.95;-8.93
2218;1.16;-9.59;0.94;0.15;0.78;-0.16;-1.41;11.18;-8.01
2227;1.01;-9.69;0.64;0.15;0.78;-0.16;3.86;8.42;-9.11
2236;0.81;-9.73;0.60;0.15;0.78;-0.17;8.40;4.14;-10.42
2244;0.70;-9.79;0.48;0.15;0.78;-0.17;11.31;-0.10;-11.31
2253;0.46;-9.81;0.43;0.15;0.78;-0.17;12.47;-4.06;-11.31
2262;0.40;-9.85;0.43;0.15;0.78;-0.16;10.95;-5.39;-11.64
2271;0.32;-9.96;0.35;0.15;0.78;-0.16;8.40;-4.63;-11.72
2280;0.28;-10.05;0.29;0.15;0.78;-0.16;5.16;-2.58;-11.43
2288;0.29;-10.08;0.31;0.15;0.78;-0.15;0.98;0.40;-10.07
2297;0.22;-10.16;0.45;0.15;0.78;-0.15;-2.32;2.89;-9.90
2306;0.23;-10.28;0.46;0.15;0.78;-0.15;-4.53;4.59;-9.26
2315;0.07;-10.35;0.52;0.15;0.78;-0.17;-4.53;5.22;-8.10
2324;0.03;-10.35;0.70;0.15;0.78;-0.17;-2.41;3.51;-7.54
2332;-0.00;-10.33;0.60;0.15;0.78;-0.17;0.06;0.19;-7.13
2341;-0.03;-10.36;0.69;0.15;0.78;-0.16;1.88;-3.29;-6.56
2350;-0.01;-10.30;0.79;0.15;0.78;-0.16;2.07;-7.03;-6.09
2359;0.07;-10.31;0.84;0.15;0.78;-0.16;1.75;-7.82;-5.08
2368;0.16;-10.24;0.97;0.14;0.77;-0.16;0.87;-6.60;-4.13
2376;0.29;-10.19;1.00;0.14;0.77;-0.16;-0.49;-3.89;-3.44
2385;0.30;-10.18;0.93;0.14;0.78;-0.15;-1.70;-1.49;-2.89
2394;0.32;-10.12;0.98;0.14;0.78;-0.15;-2.07;0.52;-2.59
2403;0.34;-10.03;0.84;0.14;0.78;-0.15;-1.68;1.29;-2.24
2412;0.35;-10.03;0.91;0.13;0.77;-0.15;-0.66;1.84;-1.76
2421;0.39;-9.97;0.89;0.13;0.77;-0.15;0.00;1.89;-1.93
2429;0.45;-9.95;0.87;0.13;0.77;-0.15;0.94;1.32;-1.84
2438;0.43;-9.86;0.84;0.13;0.78;-0.16;1.66;0.35;-2.35
2447;0.43;-9.87;0.77;0.13;0.78;-0.16;2.13;-0.64;-2.84
2456;0.49;-9.81;0.83;0.13;0.78;-0.16;3.31;-1.94;-3.50
2465;0.54;-9.82;0.80;0.14;0.78;-0.16;4.00;-2.48;-3.72
2473;0.65;-9.82;0.80;0.14;0.78;-0.16;4.20;-2.01;-4.20
2482;0.73;-9.74;0.72;0.14;0.78;-0.16;3.23;-1.09;-4.58
2491;0.87;-9.78;0.66;0.13;0.78;-0.16;2.38;0.48;-5.22
2500;0.94;-9.82;0.75;0.13;0.78;-0.16;1.31;2.03;-5.66
2509;0.96;-9.88;0.71;0.13;0.78;-0.16;0.83;3.29;-5.75
2517;1.02;-9.89;0.72;0.13;0.77;-0.16;1.23;3.82;-6.05
2526;1.10;-9.92;0.73;0.13;0.77;-0.16;3.02;2.58;-6.44
2535;1.17;-9.91;0.74;0.13;0.77;-0.16;5.06;0.31;-7.22
2544;1.38;-9.87;0.57;0.14;0.78;-0.16;6.84;-4.47;-8.23
2553;1.55;-9.87;0.57;0.14;0.78;-0.16;9.11;-4.74;-9.15
2561;1.70;-9.81;0.54;0.14;0.78;-0.16;10.71;-6.71;-10.68
2570;1.81;-9.84;0.59;0.14;0.79;-0.15;12.31;-7.79;-12.28
2579;2.02;-9.88;0.52;0.14;0.79;-0.15;12.95;-4.53;-13.72
2588;2.20;-9.83;0.63;0.14;0.79;-0.15;11.08;-2.52;-15.14
2597;2.29;-9.79;0.59;0.13;0.78;-0.15;7.35;3.23;-16.31
2606;2.16;-9.75;0.61;0.13;0.78;-0.15;2.06;9.71;-17.40
2614;2.00;-9.81;0.60;0.13;0.78;-0.15;-4.28;13.84;-18.12
2623;1.73;-9.81;0.53;0.13;0.79;-0.16;-3.50;13.51;-18.94
2632;1.58;-9.77;0.51;0.13;0.79;-0.16;-3.19;10.75;-20.44
2641;1.45;-9.79;0.51;0.13;0.79;-0.16;-2.20;5.71;-21.84
2650;1.22;-9.71;0.47;0.13;0.80;-0.16;-0.49;0.63;-25.13
2658;1.16;-9.79;0.53;0.13;0.80;-0.16;2.44;-3.33;-27.23
2667;1.26;-9.76;0.25;0.13;0.79;-0.15;3.86;-6.17;-29.57
2676;1.08;-9.72;0.42;0.12;0.79;-0.15;2.68;-6.27;-32.28
2685;1.14;-9.74;0.29;0.12;0.79;-0.15;-0.79;-2.61;-34.67
2694;1.10;-9.78;0.25;0.11;0.80;-0.14;-8.04;5.28;-35.06
2703;1.03;-9.81;0.22;0.11;0.80;-0.14;-19.97;14.68;-34.94
2711;1.08;-9.92;0.07;0.11;0.80;-0.14;-30.59;23.85;-31.51
2720;0.92;-9.98;0.04;0.11;0.79;-0.15;-40.10;30.56;-32.73
2729;0.78;-10.23;0.12;0.11;0.79;-0.15;-46.55;34.02;-32.54
2738;0.56;-10.42;0.20;0.11;0.79;-0.15;-46.87;32.56;-33.05
2747;0.53;-10.60;0.15;0.11;0.80;-0.15;-44.46;27.60;-34.13
2756;0.63;-10.69;0.25;0.11;0.80;-0.15;-43.39;22.41;-33.65
2764;0.84;-10.61;0.20;0.11;0.80;-0.15;-47.13;20.37;-31.81
2773;1.26;-10.47;0.38;0.10;0.80;-0.16;-54.85;24.33;-30.20
2782;1.69;-10.29;0.37;0.10;0.80;-0.16;-65.52;27.75;-29.88
2791;2.12;-10.12;0.38;0.10;0.80;-0.16;-80.54;34.83;-30.13
2800;2.43;-9.97;0.42;0.10;0.79;-0.17;-95.49;43.23;-30.98
2809;2.70;-9.73;0.58;0.10;0.79;-0.17;-113.20;52.74;-32.68
2817;2.79;-9.43;0.77;0.10;0.79;-0.17;-130.77;61.12;-34.34
2826;2.83;-9.18;0.86;0.09;0.79;-0.18;-149.05;67.19;-35.85
2835;2.98;-8.94;0.92;0.09;0.79;-0.18;-166.68;70.14;-39.19
2844;3.24;-8.71;1.37;0.09;0.79;-0.18;-184.90;67.23;-43.57
2853;3.52;-8.50;1.61;0.08;0.78;-0.21;-199.72;65.37;-51.27
2861;4.14;-7.98;2.22;0.08;0.78;-0.21;-217.56;63.43;-55.34
2870;4.99;-7.70;2.47;0.08;0.78;-0.21;-240.99;61.71;-58.64
2879;5.96;-7.19;3.69;0.08;0.77;-0.25;-264.55;57.99;-57.59
2888;8.26;-6.20;3.37;0.08;0.77;-0.25;-283.66;51.59;-57.18
2897;11.38;-5.08;3.09;0.08;0.77;-0.25;-286.72;48.42;-53.67
2906;14.64;-2.53;2.65;0.07;0.74;-0.28;-286.72;64.54;-49.12
2914;17.96;1.67;1.94;0.07;0.74;-0.28;-286.72;100.85;-46.29
2923;17.82;7.26;1.05;0.07;0.70;-0.32;-286.72;157.79;-80.26
2932;15.19;13.48;0.37;0.08;0.69;-0.32;-286.72;242.48;-167.17
2941;5.01;19.60;0.28;0.08;0.69;-0.32;-286.72;286.68;-286.72
2950;-9.57;19.60;2.29;0.12;0.60;-0.38;-286.72;286.68;-286.72
2959;-19.60;19.60;10.08;0.12;0.60;-0.38;-286.72;286.68;-286.72
2968;-19.60;19.60;19.60;0.12;0.60;-0.38;-286.72;286.68;-204.77
2976;-19.60;19.60;19.60;0.15;0.40;-0.41;-286.72;189.49;-61.96
2985;-19.60;19.58;19.60;0.15;0.40;-0.41;-286.72;115.43;-12.21
2994;-14.58;10.51;19.60;0.15;0.40;-0.41;-286.72;15.48;-75.85
3003;-8.16;-19.55;19.60;0.17;0.18;-0.35;-286.72;4.57;-185.40
3012;-11.40;-19.60;19.60;0.17;0.18;-0.35;-212.28;93.18;-191.08
3021;-15.21;-19.60;19.60;0.17;0.18;-0.35;159.82;237.62;38.47
3029;-18.59;-7.77;12.67;0.22;0.15;-0.33;286.68;209.60;228.01
3038;-16.48;18.07;-1.40;0.22;0.15;-0.33;286.68;64.15;225.41
3047;-2.79;19.60;-10.40;0.22;0.15;-0.33;286.68;-42.93;166.53
3056;7.53;19.60;-11.23;0.22;0.20;-0.37;189.18;-21.13;110.83
3065;8.55;19.60;-10.72;0.22;0.20;-0.37;-88.10;51.38;44.37
3073;3.85;19.29;-6.74;0.22;0.20;-0.37;-221.02;48.70;-12.92
3082;-0.29;11.19;0.71;0.22;0.19;-0.35;-240.21;-5.47;-47.70
3091;-2.62;3.39;9.13;0.22;0.19;-0.35;-176.51;-37.29;-49.07
3100;-2.57;-2.58;14.82;0.22;0.19;-0.35;-89.71;-25.09;-29.36
3109;-2.35;-3.55;14.44;0.20;0.17;-0.35;-0.24;5.16;-0.29
3118;-2.47;-1.17;10.44;0.20;0.17;-0.35;88.37;21.65;18.22
3127;-1.59;2.85;5.36;0.20;0.17;-0.35;139.96;13.20;26.88
3135;-0.13;6.31;2.85;0.21;0.18;-0.36;153.44;-6.99;25.89
3144;0.86;8.26;3.00;0.21;0.18;-0.36;105.44;-17.62;20.83
3153;1.74;8.34;4.50;0.21;0.18;-0.36;45.12;-11.23;14.37
3162;2.08;7.13;5.24;0.21;0.20;-0.37;4.64;-1.01;0.31
3171;1.20;5.32;6.38;0.21;0.20;-0.37;-8.90;-2.54;-9.76
3180;0.78;3.50;7.89;0.21;0.20;-0.34;-2.45;-11.02;-10.50
3188;1.27;2.27;8.70;0.20;0.20;-0.36;7.14;-12.13;-6.68
3197;1.59;2.22;9.23;0.20;0.20;-0.36;14.54;-9.66;-2.80
3206;2.02;2.52;9.42;0.20;0.21;-0.36;19.72;-8.42;0.61
3215;2.58;3.25;9.44;0.20;0.21;-0.36;20.63;-8.19;0.98
3223;3.11;4.13;9.10;0.20;0.21;-0.36;21.37;-6.54;-0.41
3232;3.28;4.64;8.74;0.20;0.21;-0.36;21.69;-6.95;-5.18
3241;3.13;4.70;8.76;0.20;0.21;-0.36;16.56;-10.61;-10.38
3250;2.81;4.22;9.19;0.20;0.21;-0.36;3.19;-13.15;-11.80
3259;2.63;3.74;9.91;0.20;0.21;-0.36;-11.54;-11.61;-9.84
3268;2.34;3.36;10.94;0.20;0.21;-0.36;-19.20;-8.48;-9.14
3276;2.07;2.92;11.62;0.20;0.21;-0.36;-15.90;-5.11;-11.13
3285;1.69;2.97;11.96;0.19;0.22;-0.37;-6.97;-1.58;-9.77
3294;1.19;2.77;11.66;0.19;0.22;-0.37;3.96;0.73;-11.93
3303;0.55;2.33;11.26;0.19;0.22;-0.37;11.40;1.68;-12.43
3312;0.27;2.10;10.88;0.20;0.22;-0.36;14.30;3.39;-11.51
3321;0.19;2.00;10.41;0.20;0.22;-0.36;12.90;5.14;-9.69
3329;0.03;1.97;10.11;0.20;0.22;-0.36;8.29;6.11;-7.91
3338;-0.03;2.11;10.13;0.20;0.22;-0.36;4.00;7.65;-4.97
3347;0.10;2.23;10.20;0.20;0.22;-0.36;4.07;8.51;-3.86
3356;0.13;2.22;9.90;0.20;0.22;-0.36;8.92;8.17;-3.90
3365;-0.03;2.12;9.75;0.19;0.22;-0.36;15.45;6.80;-3.09
3373;-0.02;1.98;9.18;0.19;0.22;-0.36;23.61;3.47;-2.50
3382;-0.07;1.76;8.75;0.19;0.22;-0.36;32.10;-0.41;-1.54
3391;0.06;1.81;8.33;0.20;0.22;-0.38;34.27;-1.29;0.72
3400;0.08;2.02;7.99;0.20;0.22;-0.38;31.19;-1.52;1.62
3409;0.18;2.15;7.84;0.20;0.22;-0.38;22.67;0.41;2.34
3417;0.28;2.21;7.68;0.20;0.23;-0.38;12.67;2.48;2.92
3426;0.15;2.31;7.66;0.20;0.23;-0.38;5.19;2.80;3.70
3435;0.44;2.44;7.67;0.20;0.23;-0.38;3.81;1.08;3.35
3444;0.61;2.49;7.70;0.20;0.23;-0.37;7.43;-3.47;2.38
3452;0.71;2.51;7.92;0.20;0.23;-0.37;11.04;-7.80;1.68
3461;0.66;2.63;8.07;0.20;0.23;-0.37;13.81;-11.84;2.44
3470;0.68;2.53;8.38;0.20;0.24;-0.36;17.35;-15.39;2.90
3479;0.98;2.55;8.61;0.20;0.24;-0.36;18.45;-14.70;2.00
3488;0.93;2.65;8.71;0.19;0.24;-0.38;14.55;-9.80;1.99
3496;0.86;2.76;8.70;0.19;0.24;-0.38;8.18;-5.15;3.05
3505;0.92;2.73;8.64;0.19;0.24;-0.38;5.84;-3.62;2.68
3514;1.03;2.66;8.87;0.18;0.25;-0.38;9.27;-4.17;2.51
3523;0.98;2.87;8.80;0.18;0.25;-0.38;16.22;-6.76;1.72
3532;0.89;3.01;9.00;0.18;0.25;-0.38;24.69;-11.31;1.31
3540;0.74;2.96;9.40;0.19;0.25;-0.39;35.33;-16.34;0.42
3549;0.62;2.82;9.68;0.19;0.25;-0.39;47.47;-21.49;0.31
3558;0.35;2.33;10.05;0.19;0.25;-0.39;62.85;-27.06;-0.16
3567;-0.09;2.09;10.44;0.18;0.26;-0.38;83.33;-31.31;0.63
3576;-0.25;1.60;10.61;0.18;0.26;-0.38;103.01;-34.46;1.82
3584;-0.33;0.97;10.32;0.18;0.26;-0.38;120.50;-35.06;2.69
3593;-0.97;0.68;10.32;0.18;0.28;-0.39;132.62;-33.94;6.35
3602;-1.35;0.66;10.34;0.18;0.28;-0.39;142.50;-35.50;11.48
3611;-1.38;0.83;10.41;0.18;0.28;-0.39;154.99;-40.59;15.50
3620;-1.53;1.01;10.73;0.17;0.31;-0.40;173.07;-48.78;16.93
3629;-1.60;1.31;11.14;0.17;0.31;-0.40;190.47;-55.59;15.76
3637;-1.59;1.27;11.52;0.17;0.31;-0.40;209.26;-60.35;13.19
3646;-1.32;0.98;11.67;0.15;0.34;-0.42;228.97;-64.03;11.10
3655;-1.58;0.86;11.91;0.15;0.34;-0.42;250.16;-65.88;10.01
3664;-1.81;0.50;11.85;0.15;0.34;-0.42;268.49;-68.51;9.12
3673;-2.05;0.09;11.45;0.14;0.40;-0.43;283.45;-75.99;7.26
3681;-2.48;-0.31;11.01;0.14;0.40;-0.43;286.68;-79.52;7.03
3690;-2.93;-0.55;10.35;0.14;0.40;-0.43;286.68;-84.74;8.31
3699;-3.19;-1.21;9.79;0.12;0.45;-0.42;286.68;-90.15;11.34
3708;-3.27;-1.54;9.25;0.12;0.45;-0.42;286.68;-97.14;14.00
3717;-3.34;-2.36;8.87;0.12;0.45;-0.42;286.68;-98.95;17.59
3726;-3.19;-3.03;8.45;0.10;0.52;-0.41;284.69;-96.99;23.07
3734;-3.45;-3.52;8.36;0.10;0.52;-0.41;277.51;-92.08;26.18
3743;-3.37;-4.14;8.05;0.10;0.52;-0.41;267.84;-89.59;28.47
3752;-3.13;-4.74;7.81;0.09;0.57;-0.40;264.08;-90.08;27.50
3761;-3.25;-5.06;7.78;0.09;0.57;-0.40;262.70;-89.82;27.70
3770;-3.47;-5.03;7.68;0.08;0.62;-0.39;259.19;-89.92;31.62
3779;-3.65;-5.00;7.81;0.08;0.62;-0.39;252.57;-88.79;36.99
3787;-3.83;-5.10;7.80;0.08;0.62;-0.39;241.92;-85.86;41.16
3796;-3.94;-5.18;7.70;0.06;0.66;-0.36;233.16;-82.82;44.69
3805;-3.81;-5.29;7.60;0.06;0.66;-0.36;227.81;-81.81;45.16
3814;-3.15;-5.84;7.29;0.06;0.66;-0.36;225.71;-83.77;41.07
3823;-3.05;-6.31;7.02;0.04;0.70;-0.34;229.49;-87.04;35.32
3832;-3.04;-6.64;6.63;0.04;0.70;-0.34;234.39;-92.66;34.01
3840;-2.75;-7.09;6.03;0.04;0.70;-0.34;238.02;-100.42;35.52
3849;-2.52;-7.02;5.48;0.04;0.74;-0.31;230.80;-105.01;38.07
3858;-2.41;-6.88;5.16;0.04;0.74;-0.31;214.51;-102.36;40.11
3867;-2.05;-6.88;4.83;0.04;0.74;-0.31;186.21;-90.55;43.53
3876;-1.85;-7.02;4.51;0.03;0.77;-0.28;148.29;-70.63;45.68
3884;-1.96;-7.36;4.51;0.03;0.77;-0.28;119.35;-53.57;47.74
3893;-1.80;-7.86;4.39;0.03;0.77;-0.28;100.76;-42.37;49.81
3902;-1.92;-8.36;4.25;0.04;0.78;-0.26;95.51;-38.06;48.16
3911;-1.79;-8.69;4.24;0.04;0.78;-0.26;104.17;-41.47;43.99
3920;-1.70;-8.94;4.02;0.04;0.78;-0.26;118.98;-51.19;38.69
3929;-1.31;-8.81;3.56;0.04;0.79;-0.25;133.69;-63.33;35.46
3937;-0.87;-8.47;3.24;0.04;0.79;-0.25;140.18;-73.28;32.99
3946;-0.41;-8.28;2.72;0.04;0.79;-0.25;134.72;-74.83;29.72
3955;-0.02;-8.23;2.73;0.04;0.79;-0.24;120.86;-70.34;23.85
3964;0.03;-8.41;2.78;0.04;0.79;-0.24;101.24;-57.12;18.66
3973;-0.01;-8.67;3.07;0.04;0.79;-0.24;84.80;-37.09;17.28
3982;-0.26;-8.79;3.09;0.03;0.81;-0.22;70.50;-14.33;19.71
3990;-0.47;-9.40;3.06;0.03;0.81;-0.22;61.68;4.10;23.50
3999;-0.62;-9.53;3.04;0.03;0.81;-0.22;60.73;17.11;25.75
4008;-1.05;-9.74;2.53;0.04;0.82;-0.20;70.05;14.52;24.13
4017;-1.21;-9.69;2.24;0.04;0.82;-0.20;81.29;0.77;19.06
4026;-1.26;-9.75;1.96;0.04;0.82;-0.20;92.09;-17.16;15.96
4034;-1.00;-9.65;1.67;0.04;0.82;-0.20;95.22;-31.60;16.06
4043;-0.45;-9.65;1.60;0.04;0.82;-0.20;91.70;-40.86;15.77
4052;0.04;-9.69;1.56;0.04;0.83;-0.17;84.87;-42.88;15.22
4061;0.27;-10.04;1.51;0.04;0.83;-0.17;78.94;-39.76;12.76
4070;0.24;-10.50;1.22;0.04;0.83;-0.17;79.35;-36.64;8.10
4078;0.09;-11.04;0.77;0.04;0.84;-0.16;85.12;-35.90;2.36
4087;0.03;-11.64;0.52;0.04;0.84;-0.16;93.60;-35.84;-0.16
4096;0.01;-11.93;0.27;0.04;0.84;-0.16;98.03;-35.96;1.29
4105;0.46;-11.96;-0.10;0.04;0.84;-0.15;98.05;-37.39;6.53
4114;0.84;-11.79;-0.21;0.04;0.84;-0.15;93.60;-38.41;6.53
4123;1.32;-11.83;-0.55;0.04;0.84;-0.15;86.29;-33.68;5.48
4132;1.53;-11.76;-0.71;0.05;0.84;-0.13;78.66;-30.16;8.39
4140;1.60;-11.77;-1.14;0.05;0.84;-0.13;70.95;-25.39;8.23
4149;1.41;-11.67;-1.35;0.05;0.84;-0.13;65.02;-21.32;6.36
4158;1.24;-11.53;-1.50;0.04;0.84;-0.11;59.78;-18.51;3.33
4167;0.96;-11.49;-1.47;0.04;0.84;-0.11;51.70;-17.60;0.87
4176;0.78;-11.39;-1.45;0.04;0.84;-0.11;46.05;-13.89;1.01
4185;0.39;-11.03;-1.37;0.05;0.85;-0.10;40.16;-4.56;2.82
4193;0.11;-10.50;-1.43;0.05;0.85;-0.10;34.59;1.99;4.45
4202;-0.37;-9.90;-1.57;0.05;0.85;-0.10;29.56;7.56;5.91
4211;-0.81;-9.52;-1.91;0.04;0.85;-0.10;24.78;9.27;7.69
4220;-1.18;-8.96;-1.94;0.04;0.85;-0.10;19.31;6.97;8.49
4229;-1.44;-8.51;-2.04;0.04;0.85;-0.10;13.26;3.12;7.19
4238;-1.65;-8.26;-1.84;0.05;0.85;-0.09;5.69;0.38;6.01
4246;-1.72;-8.12;-1.66;0.05;0.85;-0.09;-2.38;-1.44;5.92
4255;-1.73;-7.97;-1.43;0.05;0.85;-0.09;-8.57;-3.39;7.75
4264;-1.92;-8.03;-1.17;0.06;0.84;-0.08;-10.10;-4.86;8.30
4273;-1.81;-8.03;-0.90;0.06;0.84;-0.08;-8.26;-6.20;6.75
4282;-1.63;-8.13;-0.68;0.05;0.85;-0.10;-4.28;-5.91;4.99
4291;-1.40;-8.32;-0.66;0.05;0.85;-0.10;-1.97;-3.38;2.07
4300;-1.22;-8.60;-0.56;0.05;0.85;-0.10;-1.16;-0.28;0.97
4308;-1.12;-8.89;-0.68;0.05;0.84;-0.08;-3.79;2.89;2.43
4318;-0.93;-9.23;-0.80;0.05;0.84;-0.08;-9.01;7.69;5.74
4327;-0.79;-9.47;-0.90;0.05;0.84;-0.08;-13.43;11.56;8.52
4336;-0.61;-9.60;-0.93;0.06;0.85;-0.09;-15.52;11.77;9.79
4345;-0.41;-9.60;-0.96;0.06;0.85;-0.09;-15.68;10.90;8.68
4354;-0.25;-9.59;-1.00;0.06;0.85;-0.09;-17.39;8.99;4.66
4362;0.02;-9.84;-0.84;0.05;0.84;-0.10;-19.56;8.51;0.06
4371;0.05;-10.18;-0.57;0.05;0.84;-0.10;-20.79;9.20;-1.58
4380;-0.10;-10.43;-0.41;0.05;0.84;-0.10;-19.70;8.76;-0.48
4389;-0.15;-10.71;-0.35;0.06;0.85;-0.11;-15.19;6.47;1.00
4398;-0.18;-10.60;-0.21;0.06;0.85;-0.11;-10.27;3.81;3.27
4407;-0.16;-10.58;-0.25;0.06;0.85;-0.11;-6.06;0.71;6.15
4415;-0.24;-10.35;-0.26;0.06;0.84;-0.09;-3.58;-1.08;9.90
4424;-0.34;-10.05;-0.12;0.06;0.84;-0.09;-2.36;-2.22;12.91
4433;-0.35;-9.72;-0.18;0.06;0.84;-0.09;-1.21;-1.96;14.59
4442;-0.42;-9.38;-0.16;0.06;0.85;-0.11;-0.79;-1.50;13.25
4451;-0.33;-9.05;-0.17;0.06;0.85;-0.11;-0.73;-0.48;9.70
4459;-0.40;-8.89;-0.16;0.06;0.85;-0.11;-1.88;1.06;3.76
4468;-0.51;-8.94;-0.18;0.06;0.84;-0.10;-2.03;3.67;-2.09
4477;-0.60;-9.00;-0.20;0.06;0.84;-0.10;-0.60;6.11;-5.02
4486;-0.79;-9.04;-0.35;0.06;0.84;-0.10;0.90;7.74;-6.42
4495;-0.99;-9.10;-0.42;0.06;0.84;-0.10;2.87;7.24;-8.97
4503;-1.16;-9.23;-0.54;0.06;0.84;-0.10;4.06;4.97;-10.85
4512;-1.32;-9.62;-0.63;0.06;0.84;-0.10;3.63;1.79;-11.54
4521;-1.36;-9.78;-0.61;0.06;0.85;-0.10;1.77;-0.53;-10.79
4530;-1.38;-9.98;-0.58;0.06;0.85;-0.10;0.24;-2.08;-9.57
4539;-1.41;-10.14;-0.53;0.05;0.85;-0.10;0.17;-2.74;-8.19
4547;-1.38;-10.22;-0.46;0.05;0.85;-0.10;0.55;-1.72;-7.94
4556;-1.30;-10.34;-0.38;0.05;0.85;-0.10;2.00;0.12;-8.36
4565;-1.31;-10.38;-0.41;0.06;0.84;-0.10;3.81;2.95;-8.36
4574;-1.41;-10.29;-0.49;0.06;0.84;-0.10;5.00;4.95;-8.56
4583;-1.38;-10.24;-0.65;0.06;0.84;-0.10;6.03;5.98;-8.21
4591;-1.54;-10.22;-0.70;0.06;0.85;-0.10;5.66;5.93;-7.74
4600;-1.61;-10.13;-0.88;0.06;0.85;-0.10;4.87;4.39;-6.93
4609;-1.56;-10.04;-0.84;0.06;0.85;-0.10;3.30;1.96;-6.28
4618;-1.72;-9.99;-0.95;0.05;0.84;-0.10;1.27;-0.85;-5.45
4627;-1.64;-9.95;-0.78;0.05;0.84;-0.10;-1.11;-3.24;-5.00
4636;-1.61;-9.99;-0.75;0.05;0.84;-0.10;-2.35;-4.30;-4.05
4644;-1.63;-10.02;-0.66;0.06;0.84;-0.10;-2.83;-4.94;-2.87
4653;-1.60;-10.07;-0.49;0.06;0.84;-0.10;-2.51;-3.98;-1.72
4662;-1.44;-10.02;-0.39;0.06;0.84;-0.10;-1.19;-2.28;-1.74
4671;-1.31;-10.06;-0.35;0.05;0.85;-0.11;0.40;-0.32;-3.03
4680;-1.33;-10.05;-0.40;0.05;0.85;-0.11;1.68;1.38;-4.11
4689;-1.31;-10.05;-0.52;0.05;0.85;-0.11;2.10;2.26;-4.36
4698;-1.27;-9.97;-0.45;0.05;0.85;-0.11;1.58;2.60;-3.89
4706;-1.22;-9.92;-0.52;0.05;0.85;-0.11;1.56;2.81;-3.19
4715;-1.18;-9.93;-0.62;0.05;0.85;-0.11;1.52;2.76;-2.46
4724;-1.14;-9.85;-0.54;0.05;0.85;-0.10;2.47;2.73;-2.14
4733;-1.07;-9.82;-0.70;0.05;0.85;-0.10;4.69;2.00;-2.57
4742;-1.07;-9.79;-0.80;0.05;0.85;-0.10;6.79;0.71;-3.49
4751;-0.98;-9.84;-0.98;0.06;0.84;-0.10;8.37;-0.90;-4.70
4759;-0.96;-9.78;-1.01;0.06;0.84;-0.10;8.17;-2.42;-5.39
4768;-0.82;-9.75;-1.09;0.06;0.84;-0.10;6.66;-3.04;-6.66
4777;-0.72;-9.75;-1.05;0.06;0.84;-0.10;4.09;-1.84;-8.79
4786;-0.72;-9.82;-1.08;0.06;0.84;-0.10;0.97;1.19;-9.41
4795;-0.72;-9.92;-1.01;0.05;0.84;-0.09;-2.16;4.03;-9.68
4803;-0.68;-10.03;-1.02;0.05;0.84;-0.09;-3.39;5.71;-9.06
4812;-0.56;-10.17;-0.97;0.05;0.84;-0.09;-2.80;6.49;-8.81
4821;-0.44;-10.26;-0.92;0.04;0.85;-0.09;-0.86;5.29;-9.38
4830;-0.40;-10.31;-0.91;0.04;0.85;-0.09;1.32;3.22;-9.46
4839;-0.24;-10.42;-0.82;0.04;0.85;-0.09;0.88;0.91;-10.47
4848;-0.08;-10.51;-0.80;0.05;0.85;-0.09;-2.19;0.94;-11.57
4856;0.16;-10.65;-0.63;0.05;0.85;-0.09;-6.97;3.33;-12.56
4865;0.46;-10.86;-0.56;0.05;0.85;-0.09;-13.26;10.91;-13.27
4874;0.80;-11.05;-0.43;0.04;0.85;-0.10;-22.92;18.42;-12.09
4883;1.26;-11.21;-0.19;0.04;0.85;-0.10;-31.84;31.67;-9.00
4892;1.44;-11.22;-0.07;0.04;0.85;-0.10;-42.37;47.72;-5.23
4901;1.67;-11.36;-0.04;0.04;0.85;-0.10;-52.60;60.43;-2.90
4910;1.73;-11.38;0.02;0.04;0.85;-0.10;-59.16;70.46;-1.90
4918;1.67;-11.49;-0.02;0.04;0.85;-0.10;-61.24;74.29;-1.67
4927;1.28;-11.39;-0.39;0.04;0.85;-0.11;-54.68;67.66;-4.57
4936;0.92;-11.26;-0.81;0.04;0.85;-0.11;-41.90;53.54;-10.00
4945;0.99;-11.15;-1.15;0.04;0.85;-0.11;-28.52;31.84;-17.71
4954;0.77;-10.85;-1.11;0.04;0.84;-0.10;-17.00;12.27;-23.30
4963;0.58;-10.81;-1.29;0.04;0.84;-0.10;-12.43;-1.89;-28.52
4971;0.50;-10.79;-1.26;0.04;0.84;-0.10;-13.34;-11.88;-31.55
4980;0.74;-10.73;-1.27;0.04;0.84;-0.12;-20.36;-15.61;-30.97
4989;0.79;-10.48;-1.05;0.04;0.84;-0.12;-32.10;-9.75;-28.92
4998;1.06;-10.28;-0.92;0.04;0.84;-0.12;-50.31;6.16;-21.79
5007;1.16;-9.82;-0.94;0.04;0.84;-0.13;-77.80;25.86;-15.40
5016;1.25;-9.44;-0.72;0.04;0.84;-0.13;-103.51;47.63;-8.27
5024;1.51;-9.23;-0.66;0.04;0.84;-0.13;-131.59;68.48;1.09
5033;1.85;-9.14;-0.67;0.03;0.84;-0.14;-163.45;90.56;10.21
5042;2.14;-9.12;-0.66;0.03;0.84;-0.14;-189.83;109.22;20.70
5051;2.52;-8.67;-0.55;0.04;0.83;-0.17;-214.44;122.69;38.28
5060;3.42;-8.92;-0.35;0.04;0.83;-0.17;-238.77;131.00;54.56
5069;4.25;-7.15;0.41;0.04;0.83;-0.17;-271.76;112.90;69.87
5077;6.08;-5.25;1.23;0.05;0.80;-0.21;-286.72;84.39;79.18
5086;8.82;-3.51;1.21;0.05;0.80;-0.21;-286.72;54.39;84.18
5095;11.61;-0.71;1.55;0.05;0.80;-0.21;-286.72;22.43;76.75
5104;15.25;4.38;2.09;0.08;0.76;-0.26;-286.72;7.37;55.64
5113;19.02;9.80;1.67;0.08;0.76;-0.26;-286.72;48.06;-0.63
5122;19.60;16.49;2.53;0.08;0.76;-0.26;-286.72;158.62;-133.60
5131;11.65;19.60;4.77;0.07;0.71;-0.32;-286.72;286.57;-286.72
5139;-3.21;19.60;6.74;0.07;0.71;-0.32;-286.72;286.68;-286.72
5148;-19.60;19.60;11.47;0.07;0.71;-0.32;-286.72;286.68;-286.72
5157;-19.60;19.60;19.60;0.12;0.58;-0.39;-286.72;286.68;-286.72
5166;-19.60;19.60;19.60;0.12;0.58;-0.39;-286.72;286.68;-80.52
5175;-19.60;13.54;19.60;0.12;0.58;-0.39;-286.72;121.78;107.82
5183;-19.60;4.38;19.60;0.17;0.30;-0.39;-286.72;-34.52;156.17
5192;-6.86;-17.83;19.60;0.17;0.30;-0.39;-286.72;24.11;-22.58
5201;8.54;-19.60;19.60;0.17;0.30;-0.39;-178.40;3.03;-125.31
5210;3.13;-19.60;19.60;0.17;0.17;-0.34;169.14;-40.33;-116.00
5219;-9.15;-8.14;19.60;0.17;0.17;-0.34;286.68;97.22;56.65
5227;-18.77;19.60;8.19;0.17;0.17;-0.34;286.68;202.82;257.79
5236;-17.73;19.60;-8.79;0.22;0.20;-0.38;286.68;95.13;222.78
5245;0.53;19.60;-19.60;0.22;0.20;-0.38;279.23;1.66;121.69
5254;7.80;19.60;-17.86;0.22;0.20;-0.38;-52.60;18.29;90.08
5263;4.33;19.60;-11.69;0.22;0.23;-0.39;-286.72;54.58;53.73
5271;0.12;16.17;-1.62;0.22;0.23;-0.39;-286.72;11.97;7.24
5280;-1.21;7.39;9.53;0.22;0.23;-0.39;-286.72;-39.26;-32.03
5289;-0.28;-0.64;17.06;0.20;0.18;-0.36;-195.41;-35.31;-37.06
5298;0.50;-5.21;17.91;0.20;0.18;-0.36;-41.97;-1.99;-18.31
5307;-2.38;-2.83;13.76;0.20;0.18;-0.35;94.47;26.30;13.45
5316;-1.90;1.49;8.21;0.19;0.18;-0.35;187.11;30.29;28.44
5325;-1.25;6.46;3.85;0.19;0.18;-0.35;204.80;12.01;33.35
5333;0.34;9.77;2.46;0.20;0.20;-0.37;154.31;0.61;32.10
5342;1.50;10.74;2.84;0.20;0.20;-0.37;58.97;6.52;27.46
5351;2.12;10.39;3.33;0.20;0.20;-0.37;-6.43;19.22;17.37
5360;1.77;8.59;3.77;0.20;0.21;-0.38;-29.56;17.07;0.05
5369;1.26;6.82;4.72;0.20;0.21;-0.38;-16.23;-6.62;-12.52
5377;1.18;4.96;5.97;0.20;0.21;-0.38;10.86;-24.19;-19.35
5386;1.35;3.53;7.46;0.20;0.22;-0.37;20.25;-29.39;-17.95
5395;1.33;2.99;8.47;0.20;0.22;-0.37;11.27;-22.25;-11.16
5404;1.39;2.82;9.80;0.20;0.22;-0.37;-9.69;-9.07;-2.82
5413;1.51;2.65;10.57;0.19;0.21;-0.38;-23.31;-1.21;0.31
5422;1.71;3.08;11.05;0.19;0.21;-0.38;-17.95;2.45;2.14
5430;2.01;3.56;10.57;0.19;0.21;-0.38;4.57;0.78;1.15
5439;1.86;4.11;10.14;0.19;0.22;-0.38;30.77;-8.54;-5.46
5448;1.88;4.10;10.04;0.19;0.22;-0.38;41.88;-16.20;-11.21
5457;1.97;3.75;9.91;0.19;0.22;-0.38;39.29;-17.30;-15.04
5465;2.00;3.18;10.09;0.19;0.22;-0.38;24.33;-12.36;-18.03
5474;1.56;2.67;10.57;0.19;0.22;-0.38;3.19;-2.65;-17.89
5483;1.03;2.31;10.83;0.19;0.22;-0.38;-19.24;7.24;-13.22
5492;0.77;1.92;11.17;0.19;0.23;-0.38;-31.54;14.12;-9.99
5501;0.62;1.74;11.10;0.19;0.23;-0.38;-25.06;14.54;-8.36
5509;0.41;1.59;10.65;0.19;0.23;-0.38;-5.94;9.18;-7.80
5518;0.32;1.58;10.14;0.19;0.22;-0.37;13.55;0.70;-7.12
5527;0.31;1.47;9.87;0.19;0.22;-0.37;26.65;-2.99;-5.43
5536;0.26;1.69;9.71;0.19;0.22;-0.37;28.58;-3.78;-3.56
5545;0.17;1.93;9.70;0.20;0.23;-0.37;21.72;-0.64;-2.62
5553;0.01;2.06;9.69;0.20;0.23;-0.37;8.87;5.56;-1.07
5562;0.08;2.11;9.49;0.20;0.23;-0.37;-4.37;10.58;-0.12
5571;-0.02;2.09;9.45;0.19;0.22;-0.38;-5.05;11.24;-0.20
5580;0.03;1.89;9.02;0.19;0.22;-0.38;2.54;7.48;-0.41
5588;0.14;1.78;8.84;0.19;0.22;-0.38;13.46;1.73;-1.07
5597;0.08;1.79;8.66;0.19;0.23;-0.38;22.86;-3.14;0.04
5606;0.18;1.79;8.50;0.19;0.23;-0.38;25.06;-6.63;1.52
5615;0.31;1.94;8.48;0.19;0.23;-0.38;21.88;-4.65;3.25
5624;0.24;2.15;8.64;0.19;0.23;-0.38;15.18;-4.51;4.55
5632;0.40;2.34;8.68;0.19;0.23;-0.38;8.12;-2.55;4.93
5641;0.59;2.56;8.67;0.18;0.25;-0.37;4.58;0.06;2.44
5650;0.51;2.71;8.51;0.18;0.25;-0.37;4.51;1.85;3.49
5659;0.44;2.76;8.41;0.18;0.25;-0.37;6.42;0.81;1.24
5668;0.50;2.52;8.32;0.19;0.24;-0.38;8.38;-1.51;0.11
5676;0.79;2.38;8.19;0.19;0.24;-0.38;11.42;-4.05;0.11
5685;0.77;2.46;8.21;0.19;0.24;-0.38;13.36;-6.38;0.66
5694;0.85;2.54;8.55;0.18;0.24;-0.38;11.66;-7.98;1.30
5703;1.02;2.72;8.65;0.18;0.24;-0.38;8.87;-8.73;1.32
5712;1.09;3.01;8.90;0.18;0.24;-0.38;5.43;-6.91;1.17
5720;1.06;3.34;9.13;0.19;0.24;-0.39;1.59;-3.54;0.31
5729;1.10;3.34;9.00;0.19;0.24;-0.39;-1.25;-1.16;-4.24
5738;1.00;3.06;9.06;0.19;0.24;-0.39;-1.93;-0.30;-3.88
5747;0.81;2.84;9.06;0.18;0.24;-0.40;0.87;-1.35;-4.28
5756;0.78;2.63;9.18;0.18;0.24;-0.40;4.88;-3.25;-4.81
5765;0.60;2.51;9.33;0.18;0.24;-0.40;8.89;-5.20;-3.68
5773;0.57;2.35;9.50;0.19;0.25;-0.38;10.23;-5.86;-2.37
5782;0.65;2.58;9.70;0.19;0.25;-0.38;11.96;-5.34;-1.20
5791;0.63;2.62;9.78;0.19;0.25;-0.38;12.97;-2.98;-1.05
5800;0.59;2.70;9.76;0.18;0.25;-0.38;11.24;0.41;-0.76
5809;0.53;2.78;9.55;0.18;0.25;-0.38;11.00;3.68;-0.27
5818;0.51;2.86;9.20;0.18;0.25;-0.38;14.52;4.29;-0.75
5826;0.36;2.78;9.12;0.18;0.25;-0.39;20.83;2.44;-1.52
5835;0.29;2.71;9.10;0.18;0.25;-0.39;27.57;-1.42;-1.78
5844;0.25;2.57;9.21;0.18;0.25;-0.39;34.13;-4.88;-1.43
5853;-0.00;2.52;9.35;0.18;0.25;-0.38;42.60;-9.48;-0.09
5862;-0.08;2.41;9.48;0.18;0.25;-0.38;54.78;-15.30;0.00
5871;-0.21;2.40;9.57;0.18;0.25;-0.40;62.23;-16.20;-1.07
5879;-0.74;2.27;9.63;0.18;0.27;-0.40;60.71;-9.38;0.37
5888;-1.09;1.99;9.69;0.18;0.27;-0.40;50.39;-0.73;3.64
5897;-1.15;1.59;9.52;0.18;0.28;-0.39;41.73;7.30;8.96
5906;-0.89;1.42;9.34;0.18;0.28;-0.39;40.90;12.44;14.41
5915;-0.90;1.59;9.37;0.18;0.28;-0.39;52.05;10.32;19.29
5923;-0.66;1.82;9.31;0.18;0.29;-0.39;76.98;0.24;20.01
5932;-0.58;2.16;9.69;0.18;0.29;-0.39;102.99;-13.80;18.34
5941;-0.37;2.34;9.98;0.18;0.29;-0.39;128.74;-28.19;15.62
5950;-0.28;2.41;10.30;0.17;0.31;-0.41;154.12;-38.50;13.30
5959;-0.58;2.16;10.72;0.17;0.31;-0.41;171.39;-45.90;10.74
5967;-0.75;1.56;10.99;0.17;0.31;-0.41;186.93;-49.22;7.82
5976;-0.67;1.04;10.88;0.16;0.35;-0.41;199.27;-47.94;5.60
5985;-0.91;0.56;10.80;0.16;0.35;-0.41;207.77;-41.65;4.47
5994;-1.22;0.38;10.92;0.16;0.35;-0.41;208.37;-35.50;5.47
6003;-1.12;-0.03;10.69;0.15;0.39;-0.41;206.02;-28.87;4.29
6011;-1.03;-0.67;10.28;0.15;0.39;-0.41;203.68;-21.35;2.24
6020;-1.19;-1.20;9.85;0.15;0.39;-0.41;202.03;-15.80;2.13
6029;-1.52;-1.53;9.83;0.14;0.43;-0.41;200.37;-13.99;4.65
6038;-1.66;-1.83;9.66;0.14;0.43;-0.41;199.71;-15.75;7.08
6047;-2.18;-2.01;9.84;0.14;0.43;-0.41;202.78;-24.14;9.94
6056;-2.39;-2.14;9.99;0.14;0.48;-0.42;210.27;-35.38;12.98
6064;-2.75;-2.33;10.34;0.14;0.48;-0.42;226.13;-50.01;12.04
6073;-2.79;-2.78;10.58;0.14;0.48;-0.42;243.77;-60.17;9.22
6082;-2.70;-3.32;10.59;0.13;0.51;-0.40;265.79;-68.37;5.63
6091;-2.51;-3.82;10.06;0.13;0.51;-0.40;284.75;-77.84;4.62
6100;-2.15;-4.52;8.91;0.13;0.51;-0.40;286.68;-85.24;3.56
6109;-2.10;-4.70;8.45;0.12;0.57;-0.38;286.68;-91.19;0.68
6117;-2.26;-4.37;7.61;0.12;0.57;-0.38;286.68;-93.61;-1.69
6126;-2.35;-4.32;7.04;0.12;0.57;-0.38;286.68;-93.35;0.24
6135;-2.64;-4.24;6.94;0.10;0.63;-0.37;270.23;-85.33;5.03
6144;-2.64;-4.32;7.15;0.10;0.63;-0.37;230.82;-69.51;13.41
6153;-2.68;-4.75;7.39;0.10;0.67;-0.35;189.74;-55.14;19.54
6161;-2.48;-5.61;7.77;0.09;0.67;-0.35;166.60;-45.49;24.28
6170;-2.36;-6.70;7.77;0.09;0.67;-0.35;165.75;-45.09;23.22
6179;-2.31;-7.36;7.91;0.09;0.69;-0.33;184.25;-55.42;17.75
6188;-2.06;-7.96;7.49;0.09;0.69;-0.33;211.09;-72.03;12.88
6197;-1.70;-7.89;7.00;0.09;0.69;-0.33;231.32;-89.26;10.71
6206;-1.51;-7.41;6.44;0.08;0.73;-0.30;232.92;-96.30;10.91
6214;-1.04;-7.16;5.67;0.08;0.73;-0.30;212.72;-88.21;11.89
6223;-0.70;-7.01;5.26;0.08;0.73;-0.30;182.92;-68.69;15.86
6232;-0.71;-7.13;4.92;0.06;0.75;-0.29;150.61;-42.20;19.74
6241;-0.97;-7.35;4.70;0.06;0.75;-0.29;122.84;-22.09;23.56
6250;-1.30;-7.86;4.33;0.06;0.75;-0.29;113.43;-14.91;25.86
6258;-1.22;-8.81;3.95;0.06;0.76;-0.26;117.99;-20.61;25.00
6267;-1.02;-9.15;3.60;0.06;0.76;-0.26;135.70;-39.01;23.62
6276;-0.57;-9.11;3.09;0.06;0.76;-0.26;154.86;-57.02;20.48
6285;0.09;-8.70;2.70;0.07;0.78;-0.24;167.65;-70.65;13.12
6294;0.55;-8.56;2.39;0.07;0.78;-0.24;166.38;-74.87;5.55
6303;1.06;-8.38;2.10;0.07;0.78;-0.24;155.18;-63.49;2.38
6311;1.13;-8.39;2.03;0.05;0.80;-0.21;131.13;-39.84;5.33
6320;0.96;-8.46;1.84;0.05;0.80;-0.21;103.01;-11.14;9.87
6329;0.75;-8.68;1.64;0.05;0.80;-0.21;78.65;10.93;9.84
6338;0.30;-9.32;1.45;0.06;0.80;-0.21;69.20;21.97;5.62
6347;-0.21;-9.72;1.44;0.06;0.80;-0.21;71.17;23.39;-0.37
6355;-0.62;-10.14;1.17;0.06;0.80;-0.21;82.93;12.17;-3.28
6364;-0.75;-10.55;0.91;0.07;0.82;-0.20;98.64;-5.72;-2.89
6373;-0.66;-10.45;0.62;0.07;0.82;-0.20;113.73;-26.36;-0.64
6382;-0.15;-10.18;0.35;0.07;0.82;-0.20;122.23;-44.82;0.97
6391;0.21;-10.00;0.18;0.06;0.83;-0.17;121.52;-52.83;-2.27
6399;0.35;-9.85;0.25;0.06;0.83;-0.17;113.46;-47.71;-7.87
6408;0.84;-10.21;0.35;0.06;0.83;-0.17;100.00;-33.97;-10.38
6417;0.61;-10.65;0.42;0.05;0.83;-0.15;81.39;-15.07;-10.30
6426;0.16;-10.93;0.36;0.05;0.83;-0.15;68.32;4.80;-6.03
6435;-0.28;-11.11;-0.00;0.06;0.84;-0.14;62.26;21.03;-2.30
6444;-0.79;-11.22;-0.60;0.06;0.84;-0.14;65.44;25.79;-1.24
6453;-1.16;-11.10;-0.86;0.06;0.84;-0.14;71.50;17.16;-0.56
6461;-1.16;-10.99;-1.26;0.06;0.84;-0.11;77.73;2.17;1.82
6470;-1.07;-10.64;-1.30;0.06;0.84;-0.11;78.85;-14.42;4.00
6479;-0.94;-10.33;-1.27;0.06;0.84;-0.11;71.86;-26.79;5.61
6488;-0.85;-10.02;-1.16;0.06;0.85;-0.10;60.02;-32.80;5.36
6497;-0.92;-9.96;-0.86;0.06;0.85;-0.10;46.20;-31.45;3.53
6506;-1.19;-9.91;-0.42;0.06;0.85;-0.10;32.89;-25.37;1.84
6514;-1.66;-10.23;-0.27;0.05;0.84;-0.10;20.61;-19.37;1.08
6523;-2.19;-10.50;-0.03;0.05;0.84;-0.10;9.48;-14.13;1.78
6532;-2.41;-10.84;0.21;0.05;0.84;-0.10;6.97;-12.27;6.59
6541;-2.57;-11.15;0.41;0.06;0.85;-0.10;8.96;-11.00;14.13
6550;-2.39;-10.93;0.25;0.06;0.85;-0.10;17.10;-8.76;21.94
6558;-2.09;-10.67;0.09;0.06;0.85;-0.10;28.27;-9.30;26.02
6567;-1.82;-10.27;-0.09;0.06;0.85;-0.10;35.81;-10.93;27.92
6576;-1.54;-9.94;-0.40;0.06;0.85;-0.10;40.06;-12.59;27.86
6585;-1.36;-9.55;-0.67;0.06;0.85;-0.10;41.97;-13.64;27.00
6594;-1.14;-9.25;-1.05;0.06;0.84;-0.09;41.36;-12.08;24.00
6603;-0.76;-9.09;-1.17;0.06;0.84;-0.09;36.83;-9.83;20.53
6611;-0.38;-9.06;-1.42;0.06;0.84;-0.09;29.06;-5.39;20.42
6620;-0.23;-8.95;-1.54;0.07;0.84;-0.09;19.90;-1.30;21.98
6629;-0.12;-8.89;-1.54;0.07;0.84;-0.09;10.45;1.37;21.64
6638;0.12;-9.02;-1.66;0.07;0.84;-0.09;2.34;2.74;20.93
6647;0.40;-9.08;-1.64;0.07;0.84;-0.07;-6.90;-0.20;22.02
6655;0.83;-9.10;-1.48;0.07;0.84;-0.07;-16.62;-6.05;23.71
6664;1.03;-9.29;-1.31;0.07;0.84;-0.07;-23.79;-9.55;22.63
6673;1.29;-9.38;-1.03;0.08;0.85;-0.08;-27.83;-15.39;22.88
6682;1.53;-9.44;-0.49;0.08;0.85;-0.08;-26.73;-19.97;22.12
6691;1.33;-9.21;-0.27;0.08;0.85;-0.09;-24.04;-23.59;18.35
6700;1.34;-9.10;0.11;0.08;0.84;-0.09;-21.92;-23.81;14.17
6708;1.06;-9.17;0.27;0.08;0.84;-0.09;-22.21;-19.77;9.11
6717;0.85;-9.32;0.52;0.09;0.84;-0.10;-23.42;-11.32;6.75
6726;0.60;-9.45;0.61;0.09;0.84;-0.10;-24.89;-5.47;7.60
6735;0.39;-9.39;0.79;0.09;0.84;-0.10;-25.15;-0.76;9.25
6744;0.21;-9.39;0.90;0.08;0.83;-0.10;-24.07;0.18;9.22
6752;0.21;-9.45;0.98;0.08;0.83;-0.10;-20.93;-2.05;9.02
6761;0.12;-9.44;1.12;0.08;0.83;-0.10;-14.75;-5.72;7.82
6770;0.21;-9.34;1.16;0.09;0.84;-0.10;-7.72;-10.11;5.58
6779;0.31;-9.34;1.23;0.09;0.84;-0.10;-0.49;-11.58;1.66
6788;0.37;-9.37;1.25;0.09;0.84;-0.10;6.93;-10.40;-1.50
6797;0.34;-9.42;1.03;0.09;0.84;-0.10;11.73;-6.73;-4.09
6805;0.41;-9.48;0.97;0.09;0.84;-0.10;16.08;0.49;-5.49
6814;0.27;-9.34;0.78;0.09;0.84;-0.10;18.73;7.43;-7.48
6823;0.12;-9.30;0.35;0.08;0.84;-0.10;19.21;13.82;-10.68
6832;-0.09;-9.35;0.05;0.08;0.84;-0.10;18.38;18.30;-14.04
6841;-0.29;-9.46;-0.35;0.08;0.84;-0.10;15.99;21.94;-15.79
6850;-0.57;-9.59;-0.73;0.09;0.84;-0.09;13.94;23.28;-16.49
6858;-0.81;-9.70;-1.09;0.09;0.84;-0.09;11.63;21.48;-17.07
6867;-1.09;-9.81;-1.15;0.09;0.84;-0.09;9.68;17.15;-17.40
6876;-1.30;-9.96;-1.24;0.07;0.84;-0.09;8.19;10.19;-17.96
6885;-1.38;-10.09;-1.34;0.07;0.84;-0.09;7.47;3.06;-17.91
6894;-1.46;-10.13;-1.31;0.07;0.84;-0.09;6.19;-3.39;-17.48
6902;-1.40;-10.24;-1.11;0.08;0.84;-0.07;4.23;-6.47;-16.61
6911;-1.32;-10.34;-0.96;0.08;0.84;-0.07;2.61;-6.15;-14.89
6920;-1.11;-10.47;-0.90;0.08;0.84;-0.07;2.18;-2.58;-12.63
6929;-0.95;-10.46;-0.86;0.07;0.84;-0.09;1.38;3.85;-10.32
6938;-0.89;-10.38;-0.85;0.07;0.84;-0.09;1.25;8.18;-8.59
6947;-0.88;-10.33;-0.98;0.07;0.84;-0.09;0.81;9.38;-7.99
6955;-0.82;-10.27;-1.20;0.07;0.85;-0.08;1.40;6.89;-7.98
6964;-0.87;-10.22;-1.30;0.07;0.85;-0.08;3.39;2.58;-7.95
6973;-0.86;-10.12;-1.49;0.07;0.83;-0.09;5.36;-3.62;-7.26
6982;-0.76;-10.01;-1.53;0.07;0.83;-0.09;7.68;-11.21;-6.47
6991;-0.64;-9.83;-1.51;0.07;0.83;-0.09;8.95;-16.62;-5.99
6999;-0.48;-9.58;-1.40;0.07;0.84;-0.08;7.98;-20.64;-7.53
7008;-0.27;-9.40;-1.32;0.07;0.84;-0.08;5.31;-22.55;-11.53
7017;-0.03;-9.52;-1.19;0.07;0.84;-0.08;1.94;-21.77;-15.18
7026;0.12;-9.68;-0.97;0.07;0.84;-0.10;-1.90;-18.03;-16.79
7035;0.24;-9.87;-0.87;0.07;0.84;-0.10;-3.49;-11.30;-16.53
7044;0.31;-10.00;-0.86;0.07;0.84;-0.10;-3.08;-8.44;-15.78
7052;0.30;-9.97;-0.81;0.06;0.85;-0.08;-1.60;-6.07;-16.54
7061;0.29;-9.93;-0.83;0.06;0.85;-0.08;-0.76;-5.53;-17.43
7070;0.26;-10.04;-0.73;0.06;0.85;-0.08;-1.69;-4.97;-18.14
7079;0.26;-10.18;-0.61;0.06;0.85;-0.09;-4.73;-4.72;-17.88
7088;0.22;-10.45;-0.46;0.06;0.85;-0.09;-7.80;-4.64;-15.51
7096;0.17;-10.67;-0.43;0.06;0.85;-0.09;-9.09;-5.11;-11.60
7105;0.20;-10.77;-0.47;0.06;0.85;-0.08;-6.48;-6.35;-8.59
7114;0.20;-10.79;-0.65;0.06;0.85;-0.08;-1.69;-9.70;-7.05
7123;0.26;-10.63;-0.75;0.06;0.85;-0.08;3.75;-13.47;-10.08
7132;0.45;-10.54;-0.85;0.05;0.84;-0.09;8.69;-15.27;-17.16
7141;0.58;-10.49;-0.95;0.05;0.84;-0.09;9.89;-14.17;-24.82
7149;0.76;-10.59;-1.10;0.05;0.84;-0.09;7.32;-9.93;-33.40
7158;0.94;-10.75;-1.27;0.05;0.85;-0.09;-2.17;1.29;-37.37
7167;0.95;-10.84;-1.28;0.05;0.85;-0.09;-13.67;14.75;-36.65
7176;1.06;-10.95;-1.30;0.05;0.85;-0.09;-30.49;29.75;-31.91
7185;1.05;-11.07;-1.33;0.05;0.86;-0.09;-49.74;44.90;-25.34
7194;0.82;-11.07;-1.21;0.05;0.86;-0.09;-62.07;52.46;-22.30
7203;0.64;-11.14;-1.23;0.05;0.86;-0.09;-66.22;53.45;-22.89
7211;0.79;-11.22;-1.20;0.04;0.84;-0.10;-65.44;50.54;-24.08
7220;0.87;-11.22;-0.96;0.04;0.84;-0.10;-62.70;49.35;-24.40
7229;1.04;-11.02;-0.69;0.04;0.85;-0.10;-61.35;50.89;-21.10
7238;1.29;-10.84;-0.65;0.04;0.85;-0.10;-63.41;55.64;-14.60
7247;1.43;-10.45;-0.53;0.04;0.85;-0.10;-70.16;62.20;-6.41
7256;1.47;-10.17;-0.44;0.04;0.85;-0.11;-78.90;71.54;2.07
7264;1.55;-9.80;-0.30;0.04;0.85;-0.11;-92.77;81.80;9.56
7273;1.72;-9.55;-0.22;0.04;0.85;-0.11;-105.05;89.70;13.41
7282;1.44;-9.19;-0.06;0.04;0.84;-0.13;-115.44;99.80;17.48
7291;1.52;-8.82;-0.20;0.04;0.84;-0.13;-125.41;102.67;20.65
7300;1.51;-8.45;-0.28;0.04;0.84;-0.13;-134.78;104.48;25.63
7308;1.73;-7.76;-0.25;0.05;0.84;-0.14;-143.95;101.96;26.60
7317;1.83;-6.82;0.57;0.05;0.84;-0.14;-167.48;94.47;25.40
7326;2.11;-5.82;1.16;0.05;0.84;-0.14;-199.19;84.33;18.93
7335;2.81;-4.62;1.72;0.06;0.82;-0.17;-234.15;83.21;11.34
7344;3.90;-3.47;2.31;0.06;0.82;-0.17;-267.88;94.67;0.17
7353;5.26;-2.63;2.50;0.06;0.82;-0.17;-286.72;113.39;-1.92
7361;6.29;-1.28;2.39;0.06;0.79;-0.21;-286.72;141.94;-4.87
7370;6.76;1.22;2.40;0.06;0.79;-0.21;-286.72;187.31;-5.83
7379;6.40;4.69;2.07;0.06;0.79;-0.21;-286.72;249.17;-12.01
7388;4.26;8.91;2.67;0.09;0.74;-0.27;-286.72;286.68;-27.21
7397;-1.05;13.03;3.46;0.09;0.74;-0.27;-286.72;286.68;-60.96
7405;-7.73;16.41;5.15;0.09;0.74;-0.27;-286.72;281.25;-97.51
7414;-15.14;18.51;7.34;0.15;0.64;-0.34;-286.72;232.68;-121.71
7423;-19.60;19.60;13.48;0.15;0.64;-0.34;-286.72;162.96;-115.19
7432;-19.60;19.52;19.60;0.15;0.64;-0.34;-286.72;75.56;-36.01
7441;-19.60;17.48;19.60;0.17;0.45;-0.42;-286.72;31.14;89.31
7450;-17.07;12.39;19.60;0.17;0.45;-0.42;-286.72;24.76;168.45
7459;0.13;1.11;19.60;0.17;0.45;-0.42;-286.72;107.59;126.02
7467;13.20;-18.24;19.60;0.15;0.22;-0.37;-286.72;80.50;-72.35
7476;9.75;-19.60;19.60;0.15;0.22;-0.37;-157.32;50.15;-196.74
7485;-2.72;-14.13;19.60;0.15;0.22;-0.33;212.83;46.93;-160.23
7494;-13.00;1.82;10.19;0.20;0.17;-0.34;286.68;151.73;21.16
7503;-17.07;12.99;-1.07;0.20;0.17;-0.34;286.68;105.05;120.22
7512;-8.48;18.19;-11.22;0.25;0.20;-0.36;286.68;-36.11;99.70
7520;0.65;19.29;-11.54;0.25;0.20;-0.36;57.93;-62.91;95.97
7529;4.33;18.65;-4.40;0.25;0.20;-0.36;-153.82;-24.79;72.14
7538;3.02;14.99;1.27;0.22;0.19;-0.36;-272.20;-5.11;24.40
7547;1.88;9.34;7.85;0.22;0.19;-0.36;-272.05;-26.75;-9.96
7556;2.28;3.14;13.02;0.22;0.19;-0.36;-173.57;-32.13;-23.19
7564;1.88;-1.13;16.06;0.20;0.18;-0.35;-55.87;-22.84;-22.24
7573;1.09;-1.53;15.12;0.20;0.18;-0.35;46.00;8.62;-9.92
7582;0.52;0.27;12.36;0.20;0.18;-0.35;115.10;37.08;0.87
7591;0.22;2.80;8.73;0.21;0.19;-0.36;140.46;50.44;6.84
7600;0.53;5.05;5.70;0.21;0.19;-0.36;141.47;49.99;13.38
7608;1.29;6.03;3.56;0.21;0.19;-0.36;124.46;41.70;12.07
7617;1.35;6.53;2.78;0.20;0.21;-0.36;82.72;32.80;11.81
7626;1.73;6.17;3.46;0.20;0.21;-0.36;39.99;20.61;13.41
7635;2.39;5.31;4.87;0.20;0.21;-0.36;6.46;9.94;10.66
7643;2.60;4.25;6.55;0.21;0.22;-0.36;-11.25;0.81;5.95
7652;2.73;3.24;8.36;0.21;0.22;-0.36;-15.12;-3.68;3.61
7661;2.94;2.75;9.08;0.21;0.22;-0.36;-8.74;-1.66;1.69
7670;2.72;2.64;9.07;0.20;0.22;-0.37;0.49;4.94;-1.74
7679;2.35;2.90;8.79;0.20;0.22;-0.37;8.65;8.48;-3.09
7687;1.90;3.29;8.28;0.20;0.22;-0.37;11.38;8.73;-3.03
7696;1.49;3.63;8.09;0.20;0.23;-0.36;9.45;3.20;-3.76
7705;1.33;3.82;8.22;0.20;0.23;-0.36;5.99;-4.86;-4.97
7714;1.18;3.65;8.70;0.20;0.23;-0.36;3.54;-12.96;-5.98
7723;1.05;3.41;9.45;0.20;0.22;-0.36;4.85;-17.26;-6.68
7732;0.76;2.86;10.20;0.20;0.22;-0.36;6.09;-17.47;-6.31
7740;0.65;2.30;10.66;0.20;0.22;-0.36;8.18;-10.92;-3.70
7749;0.44;2.09;10.64;0.20;0.23;-0.36;11.68;-1.88;-1.39
7758;0.34;2.21;10.20;0.20;0.23;-0.36;16.38;5.23;1.44
7767;0.39;2.46;9.72;0.20;0.23;-0.36;18.69;12.96;4.12
7775;0.39;2.67;9.20;0.20;0.23;-0.37;18.71;14.06;6.37
7784;0.46;2.80;8.73;0.20;0.23;-0.37;20.36;12.98;7.34
7793;0.64;2.97;8.33;0.20;0.23;-0.37;24.41;8.72;6.61
7802;0.84;2.88;8.06;0.20;0.23;-0.37;29.48;2.97;4.09
7810;0.97;2.80;7.98;0.20;0.23;-0.37;32.29;0.27;2.20
7819;0.90;2.65;8.02;0.20;0.24;-0.36;30.56;-0.19;2.13
7828;0.78;2.49;8.09;0.20;0.24;-0.36;25.37;-1.44;3.94
7837;0.89;2.44;8.01;0.20;0.24;-0.36;20.19;-2.10;6.11
7846;0.93;2.74;8.03;0.20;0.24;-0.36;17.97;-2.80;7.84
7855;1.01;2.93;8.08;0.20;0.24;-0.36;17.53;-3.39;6.78
7863;0.95;3.05;8.14;0.20;0.24;-0.36;15.05;-5.69;4.62
7872;0.97;2.98;8.22;0.20;0.25;-0.37;10.99;-8.16;2.62
7881;1.05;2.70;8.27;0.20;0.25;-0.37;9.88;-10.26;1.54
7890;1.12;2.43;8.49;0.20;0.25;-0.37;10.11;-12.66;0.91
7899;1.26;2.37;8.76;0.20;0.25;-0.37;10.60;-13.88;0.74
7907;1.29;2.47;9.06;0.20;0.25;-0.37;7.97;-12.37;1.17
7916;1.28;2.78;9.41;0.20;0.25;-0.37;4.33;-8.82;3.92
7925;1.25;2.86;9.45;0.19;0.25;-0.36;-0.35;-5.09;4.25
7934;1.38;2.94;9.45;0.19;0.25;-0.36;-1.44;-2.61;3.56
7943;1.12;2.81;9.47;0.19;0.25;-0.36;0.28;-0.47;2.97
7951;1.13;2.73;9.23;0.19;0.25;-0.37;4.42;-1.26;2.70
7960;1.22;2.74;9.08;0.19;0.25;-0.37;10.80;-3.76;2.32
7969;1.20;2.81;9.14;0.19;0.25;-0.37;15.10;-6.53;1.09
7978;1.04;2.81;9.21;0.19;0.25;-0.37;16.27;-8.29;-0.35
7987;0.95;2.75;9.16;0.19;0.25;-0.37;13.90;-10.06;-0.30
7995;0.85;2.71;9.20;0.19;0.25;-0.37;11.22;-10.08;0.30
8004;0.88;2.79;9.36;0.19;0.26;-0.38;8.99;-7.50;0.50
8013;0.90;2.83;9.36;0.19;0.26;-0.38;6.59;-3.64;0.69
8022;0.81;2.83;9.42;0.19;0.26;-0.38;5.58;-0.35;0.74
8031;0.86;2.83;9.34;0.19;0.25;-0.38;7.84;1.78;0.90
8039;0.87;2.70;9.29;0.19;0.25;-0.38;12.52;1.38;0.16
8048;0.82;2.62;9.16;0.19;0.25;-0.38;16.93;-1.14;-0.45
8057;0.82;2.41;9.10;0.19;0.26;-0.38;20.53;-4.32;0.23
8066;0.52;2.41;9.34;0.19;0.26;-0.38;20.90;-5.28;2.07
8075;0.36;2.42;9.52;0.19;0.26;-0.38;19.68;-7.45;3.50
8083;0.46;2.31;9.62;0.18;0.27;-0.37;18.81;-7.39;4.31
8092;0.50;2.02;9.78;0.18;0.27;-0.37;17.76;-3.98;6.66
8101;0.55;2.08;9.95;0.19;0.26;-0.39;16.34;2.50;9.56
8110;0.48;1.95;9.95;0.19;0.26;-0.39;17.54;6.20;10.86
8119;0.43;1.87;9.96;0.19;0.26;-0.39;22.23;7.23;12.33
8127;0.40;1.84;9.96;0.19;0.27;-0.38;31.63;6.63;14.42
8136;0.36;1.80;9.92;0.19;0.27;-0.38;41.45;3.28;15.77
8145;0.18;1.87;10.07;0.19;0.27;-0.38;54.28;-1.11;16.99
8154;0.05;1.71;10.27;0.18;0.27;-0.39;65.96;-6.22;18.38
8162;0.07;1.49;10.40;0.18;0.27;-0.39;78.21;-9.13;20.49
8171;0.03;1.44;10.43;0.18;0.27;-0.39;91.07;-12.74;22.68
8180;-0.01;1.41;10.45;0.17;0.29;-0.38;103.35;-14.90;24.02
8189;-0.06;1.51;10.53;0.17;0.29;-0.38;112.00;-15.21;25.87
8198;-0.00;1.82;10.52;0.17;0.29;-0.38;119.66;-17.11;27.29
8206;0.08;1.94;10.49;0.17;0.31;-0.40;127.97;-19.63;24.91
8215;0.09;1.99;10.50;0.17;0.31;-0.40;136.20;-19.32;22.50
8224;-0.13;2.02;10.52;0.17;0.31;-0.40;141.71;-19.84;19.83
8233;-0.29;1.98;10.38;0.16;0.33;-0.41;145.49;-19.50;17.85
8242;-0.55;1.70;10.23;0.16;0.33;-0.41;150.12;-20.45;15.23
8250;-0.91;1.08;10.03;0.16;0.33;-0.41;154.49;-22.80;13.67
8259;-1.26;0.66;9.96;0.16;0.36;-0.42;161.28;-24.89;15.98
8268;-1.56;0.43;10.01;0.16;0.36;-0.42;170.84;-27.83;20.52
8277;-1.79;0.30;10.07;0.16;0.36;-0.42;181.83;-33.07;24.32
8286;-1.90;-0.01;10.26;0.16;0.40;-0.42;194.97;-39.10;25.05
8295;-2.05;-0.29;10.46;0.16;0.40;-0.42;211.90;-45.88;25.32
8303;-1.95;-0.83;10.38;0.16;0.40;-0.42;229.80;-53.14;24.95
8312;-1.58;-1.24;10.06;0.15;0.43;-0.41;247.67;-59.33;24.24
8321;-1.44;-1.09;9.90;0.15;0.43;-0.41;262.59;-62.47;19.34
8330;-1.44;-1.22;9.91;0.15;0.43;-0.41;267.02;-64.29;11.65
8339;-1.57;-1.40;9.76;0.13;0.49;-0.41;267.23;-59.88;6.28
8348;-1.82;-1.85;9.56;0.13;0.49;-0.41;262.18;-54.36;5.99
8356;-2.14;-2.19;9.46;0.13;0.49;-0.41;257.07;-49.91;7.66
8365;-2.45;-2.75;9.22;0.12;0.54;-0.40;253.05;-48.47;10.19
8374;-2.49;-3.20;8.77;0.12;0.54;-0.40;251.59;-51.51;12.33
8383;-2.51;-3.67;8.43;0.12;0.59;-0.38;252.49;-54.15;12.23
8392;-2.38;-4.10;8.25;0.12;0.59;-0.38;251.77;-56.24;12.73
8401;-2.06;-4.54;7.81;0.12;0.59;-0.38;249.11;-60.13;13.44
8409;-1.82;-5.02;7.51;0.11;0.63;-0.38;249.27;-64.34;15.30
8418;-1.73;-5.33;7.24;0.11;0.63;-0.38;250.87;-69.43;16.19
8427;-1.57;-5.46;6.80;0.11;0.63;-0.38;249.62;-76.20;15.61
8436;-1.31;-5.80;6.44;0.10;0.67;-0.34;240.79;-78.53;13.12
8445;-1.05;-5.71;6.37;0.10;0.67;-0.34;227.74;-75.68;10.55
8454;-1.22;-6.00;6.53;0.10;0.67;-0.34;209.34;-67.88;11.85
8462;-1.10;-6.52;6.38;0.09;0.70;-0.33;194.09;-57.87;12.01
8471;-1.28;-6.99;6.39;0.09;0.70;-0.33;182.74;-51.04;14.29
8480;-1.30;-7.75;6.25;0.09;0.70;-0.33;180.04;-48.97;16.14
8489;-1.28;-8.25;6.11;0.08;0.73;-0.29;184.02;-50.35;16.87
8498;-1.15;-8.32;5.81;0.08;0.73;-0.29;192.68;-58.08;18.00
8506;-0.81;-8.25;5.23;0.08;0.73;-0.29;199.30;-68.56;19.05
8515;-0.45;-8.21;4.71;0.07;0.76;-0.29;204.71;-79.50;15.90
8524;-0.21;-7.83;4.35;0.07;0.76;-0.29;204.82;-88.18;10.48
8533;0.07;-7.79;3.71;0.07;0.76;-0.29;197.49;-89.95;4.41
8542;-0.05;-7.99;3.44;0.07;0.78;-0.24;189.18;-86.78;1.31
8551;-0.11;-8.59;3.10;0.07;0.78;-0.24;183.70;-81.68;-0.56
8559;-0.23;-9.14;2.88;0.07;0.78;-0.24;182.50;-76.83;-1.01
8568;-0.35;-9.27;2.59;0.07;0.80;-0.22;184.36;-71.26;-1.76
8577;-0.14;-9.23;2.34;0.07;0.80;-0.22;185.32;-65.09;-4.83
8586;-0.01;-9.16;1.90;0.07;0.80;-0.22;182.66;-59.72;-9.36
8595;0.07;-9.07;1.69;0.06;0.81;-0.20;178.74;-52.75;-15.33
8603;0.02;-9.00;1.45;0.06;0.81;-0.20;174.97;-48.07;-19.78
8612;0.28;-9.01;0.93;0.06;0.81;-0.20;166.03;-46.58;-22.23
8621;0.42;-9.02;0.55;0.05;0.83;-0.18;150.09;-40.08;-25.09
8630;0.05;-9.31;-0.01;0.05;0.83;-0.18;131.01;-21.35;-28.32
8639;-1.00;-9.73;-0.59;0.05;0.83;-0.15;113.15;-2.25;-32.94
8648;-2.41;-10.43;-0.96;0.04;0.84;-0.15;102.52;7.45;-38.57
8656;-3.19;-11.15;-1.20;0.04;0.84;-0.15;96.43;2.24;-37.55
8665;-3.61;-11.53;-1.61;0.04;0.85;-0.12;96.92;-9.48;-34.08
8674;-3.82;-11.76;-1.76;0.04;0.85;-0.12;99.93;-26.64;-30.29
8683;-3.43;-11.76;-1.90;0.04;0.85;-0.12;102.78;-42.63;-30.00
8692;-2.64;-11.57;-2.06;0.03;0.86;-0.10;97.86;-53.24;-26.50
8701;-1.55;-11.47;-1.87;0.03;0.86;-0.10;83.06;-50.48;-14.23
8710;-1.10;-11.18;-1.74;0.03;0.86;-0.10;61.13;-33.28;-5.51
8718;-0.72;-11.03;-1.75;0.02;0.87;-0.10;33.06;-13.28;3.76
8727;-0.43;-11.05;-1.49;0.02;0.87;-0.10;13.31;5.28;17.61
8736;-0.71;-10.85;-1.52;0.02;0.87;-0.10;6.35;20.88;21.25
8745;-0.55;-10.85;-1.37;0.03;0.87;-0.09;14.33;24.38;23.20
8754;-0.53;-10.50;-1.58;0.03;0.87;-0.09;28.21;17.10;22.58
8763;-0.42;-10.26;-1.68;0.03;0.87;-0.09;39.38;2.43;20.08
8771;-0.29;-9.93;-1.79;0.03;0.86;-0.08;41.44;-12.65;16.94
8780;-0.08;-9.51;-1.55;0.03;0.86;-0.08;33.63;-26.18;15.69
8789;0.35;-9.45;-1.23;0.03;0.86;-0.08;21.32;-33.65;16.00
8798;0.75;-9.35;-0.88;0.03;0.85;-0.08;10.56;-32.92;19.20
8807;0.95;-8.97;-0.56;0.03;0.85;-0.08;4.37;-25.76;21.69
8815;1.05;-8.58;-0.25;0.03;0.85;-0.08;3.84;-16.49;21.30
8824;0.97;-8.54;-0.02;0.04;0.86;-0.07;6.50;-4.66;20.23
8833;1.02;-8.43;-0.16;0.04;0.86;-0.07;12.75;0.88;18.64
8842;0.95;-8.24;-0.39;0.04;0.86;-0.07;20.18;8.65;18.09
8851;0.90;-8.24;-0.58;0.04;0.86;-0.07;23.41;15.01;17.80
8859;0.87;-8.41;-1.04;0.04;0.86;-0.07;21.53;20.31;18.11
8868;0.76;-8.50;-1.10;0.04;0.86;-0.07;15.89;22.92;21.39
8877;0.65;-8.47;-1.33;0.06;0.85;-0.06;11.33;21.17;24.82
8886;0.67;-8.16;-1.36;0.06;0.85;-0.06;6.71;13.94;25.07
8895;0.72;-7.90;-1.37;0.06;0.85;-0.06;0.45;9.36;19.67
8903;0.76;-7.87;-1.19;0.06;0.85;-0.06;-4.49;3.24;11.21
8912;0.71;-8.01;-0.94;0.06;0.85;-0.06;-6.92;-2.21;0.55
8921;0.74;-8.22;-0.78;0.06;0.85;-0.08;-7.26;-5.68;-4.95
8930;0.71;-8.46;-0.47;0.06;0.85;-0.08;-5.19;-6.76;-10.70
8939;0.60;-8.74;-0.34;0.06;0.85;-0.08;-4.03;-4.45;-14.90
8947;0.42;-9.06;-0.09;0.06;0.86;-0.06;-3.72;0.02;-17.27
8956;0.16;-9.34;0.01;0.06;0.86;-0.06;-3.33;4.70;-18.44
8965;-0.19;-9.74;-0.07;0.06;0.86;-0.06;-1.87;6.67;-18.98
8974;-0.63;-10.03;-0.33;0.05;0.85;-0.06;1.09;4.49;-19.81
8983;-1.14;-10.30;-0.41;0.05;0.85;-0.06;3.76;5.01;-20.79
8992;-1.58;-10.49;-0.55;0.05;0.85;-0.06;6.44;1.38;-21.63
9000;-2.03;-10.58;-0.60;0.05;0.86;-0.06;7.96;-2.81;-22.62
9009;-2.36;-10.54;-0.68;0.05;0.86;-0.06;4.89;-5.84;-24.89
9018;-2.56;-10.71;-0.70;0.05;0.86;-0.06;1.39;-5.73;-28.34
9027;-2.80;-10.87;-0.73;0.04;0.86;-0.07;-3.45;-3.23;-29.87
9036;-3.02;-11.14;-0.79;0.04;0.86;-0.07;-8.93;-0.24;-27.19
9045;-3.18;-11.20;-0.85;0.04;0.86;-0.07;-8.79;1.27;-21.87
9053;-3.14;-11.13;-0.85;0.04;0.87;-0.06;-9.98;3.24;-13.76
9062;-3.05;-10.87;-0.72;0.04;0.87;-0.06;-11.35;4.80;-11.91
9071;-3.13;-10.76;-0.69;0.04;0.87;-0.06;-11.31;5.02;-11.15
9080;-3.17;-10.65;-0.63;0.04;0.86;-0.07;-7.95;4.24;-11.10
9088;-3.22;-10.66;-0.65;0.04;0.86;-0.07;-3.60;2.92;-10.74
9097;-3.08;-10.59;-0.70;0.04;0.86;-0.07;0.53;1.87;-9.09
9106;-2.97;-10.44;-0.78;0.03;0.87;-0.07;2.54;1.61;-6.68
9115;-2.86;-10.27;-0.97;0.03;0.87;-0.07;1.23;0.52;-3.68
9124;-2.73;-10.24;-1.15;0.03;0.87;-0.07;-1.56;1.06;-0.81
9133;-2.72;-10.18;-1.18;0.03;0.86;-0.08;-4.54;1.59;0.94
9141;-2.67;-10.04;-1.32;0.03;0.86;-0.08;-5.88;1.64;1.86
9150;-2.56;-9.98;-1.30;0.03;0.86;-0.08;-5.85;0.57;1.65
9159;-2.39;-9.96;-1.37;0.03;0.87;-0.07;-5.56;0.38;0.80
9168;-2.32;-9.91;-1.45;0.03;0.87;-0.07;-4.52;-0.64;0.71
9177;-2.19;-9.89;-1.40;0.03;0.87;-0.07;-4.16;-0.48;1.01
9186;-2.03;-9.85;-1.38;0.03;0.86;-0.08;-3.91;-0.22;1.69
9195;-1.91;-9.77;-1.30;0.03;0.86;-0.08;-4.71;1.25;2.12
9204;-1.78;-9.81;-1.26;0.04;0.86;-0.07;-5.45;2.68;2.27
9212;-1.69;-9.74;-1.20;0.04;0.86;-0.07;-5.61;3.46;2.41
9221;-1.58;-9.66;-1.20;0.04;0.86;-0.07;-5.87;3.77;2.01
9230;-1.53;-9.65;-1.26;0.03;0.87;-0.08;-6.45;3.55;1.32
9239;-1.47;-9.60;-1.28;0.03;0.87;-0.08;-7.26;2.50;1.01
9248;-1.35;-9.63;-1.27;0.03;0.87;-0.08;-8.08;2.74;0.71
9256;-1.27;-9.64;-1.32;0.03;0.86;-0.08;-8.58;2.66;-0.52
9265;-1.15;-9.71;-1.17;0.03;0.86;-0.08;-8.78;2.57;-1.33
9274;-0.96;-9.81;-1.31;0.03;0.86;-0.08;-8.63;3.12;-2.07
9283;-0.78;-9.95;-1.17;0.04;0.87;-0.07;-9.51;4.68;-2.14
9292;-0.53;-10.00;-1.20;0.04;0.87;-0.07;-11.82;7.67;-0.87
9300;-0.23;-10.03;-1.18;0.04;0.87;-0.07;-16.13;11.39;0.42
9309;0.13;-10.13;-1.04;0.04;0.87;-0.06;-21.58;15.48;2.01
9318;0.43;-10.26;-0.92;0.04;0.87;-0.06;-27.46;22.25;4.16
9327;0.68;-10.29;-0.84;0.04;0.87;-0.06;-31.92;23.76;5.45
9336;0.78;-10.34;-0.75;0.03;0.86;-0.08;-33.17;25.41;5.38
9344;0.90;-10.34;-0.59;0.03;0.86;-0.08;-30.61;25.11;3.12
9353;0.99;-10.29;-0.45;0.03;0.86;-0.08;-26.53;23.34;-1.08
9362;1.06;-10.23;-0.56;0.03;0.86;-0.09;-21.62;20.90;-5.44
9371;0.99;-10.12;-0.68;0.03;0.86;-0.09;-19.11;19.69;-10.04
9380;0.94;-10.01;-0.67;0.03;0.86;-0.09;-18.20;18.91;-13.96
9389;0.80;-9.92;-0.73;0.03;0.86;-0.10;-19.77;18.03;-17.43
9397;0.63;-9.83;-0.73;0.03;0.86;-0.10;-20.89;15.80;-22.40
9406;0.51;-9.78;-0.68;0.03;0.86;-0.10;-22.88;12.64;-29.24
9415;0.45;-9.82;-0.83;0.03;0.86;-0.09;-26.57;9.96;-35.19
9424;0.34;-9.91;-0.89;0.03;0.86;-0.09;-31.90;10.52;-38.09
9433;0.34;-9.85;-0.93;0.03;0.86;-0.09;-39.67;12.17;-38.17
9442;0.41;-9.90;-1.00;0.02;0.86;-0.10;-51.94;17.36;-34.38
9450;0.55;-9.84;-0.93;0.02;0.86;-0.10;-66.41;25.38;-30.47
9459;0.93;-9.87;-0.90;0.02;0.86;-0.10;-84.39;36.25;-24.56
9468;0.96;-9.57;-0.84;0.01;0.86;-0.10;-106.49;53.01;-18.86
9477;1.08;-9.53;-0.76;0.01;0.86;-0.10;-127.70;68.95;-12.53
9486;1.12;-9.45;-0.53;0.02;0.87;-0.13;-148.52;82.54;-2.13
9495;0.96;-9.42;-0.46;0.02;0.87;-0.13;-166.49;86.67;1.44
9504;0.89;-9.26;-0.34;0.02;0.87;-0.13;-174.06;81.73;-0.12
9512;0.78;-9.03;-0.04;0.01;0.85;-0.16;-177.97;73.92;-4.30
9521;0.85;-8.76;0.22;0.01;0.85;-0.16;-182.45;65.97;-9.33
9530;0.86;-8.35;0.57;0.01;0.85;-0.16;-190.65;64.82;-15.61
9539;1.23;-7.68;1.36;0.02;0.84;-0.20;-198.70;69.99;-18.48
9548;1.58;-7.37;1.67;0.02;0.84;-0.20;-222.13;84.81;-20.69
9556;1.85;-6.85;1.91;0.02;0.84;-0.20;-250.96;108.02;-25.50
9565;2.54;-6.71;2.37;0.02;0.82;-0.22;-281.15;141.95;-27.06
9574;2.38;-5.30;2.93;0.02;0.82;-0.22;-286.72;181.55;-23.04
9583;2.79;-5.69;3.34;0.02;0.82;-0.22;-286.72;237.46;-14.41
9592;3.25;-4.35;3.57;0.04;0.79;-0.26;-286.72;269.05;6.41
9601;3.27;-3.13;3.60;0.04;0.79;-0.26;-286.72;286.68;30.85
9609;6.28;-1.36;4.10;0.04;0.79;-0.26;-286.72;286.68;70.90
9618;8.86;0.86;3.01;0.08;0.73;-0.31;-286.72;271.57;77.73
9627;10.24;5.57;3.46;0.08;0.73;-0.31;-286.72;278.30;64.47
9636;9.81;12.30;3.74;0.08;0.73;-0.31;-286.72;273.00;16.48
9645;5.94;17.79;5.91;0.13;0.63;-0.36;-286.72;252.74;-74.72
9653;-2.57;19.60;8.66;0.13;0.63;-0.36;-286.72;219.19;-162.66
9662;-12.50;19.60;14.69;0.13;0.63;-0.36;-286.72;196.18;-192.25
9671;-19.60;19.60;19.60;0.17;0.53;-0.38;-286.72;159.56;-149.58
9680;-19.60;19.60;19.60;0.17;0.53;-0.38;-286.72;52.78;-70.45
9689;-19.60;11.05;19.60;0.17;0.53;-0.38;-286.72;-42.20;13.46
9697;-19.60;-9.57;19.60;0.18;0.34;-0.39;-286.72;67.25;82.74
9706;-12.48;-19.60;19.60;0.18;0.34;-0.39;-286.72;219.19;124.87
9715;3.73;-19.60;19.60;0.18;0.34;-0.39;-286.72;170.98;86.69
9724;6.17;-19.60;19.60;0.21;0.17;-0.33;133.81;60.93;-5.13
9733;-1.49;0.46;14.99;0.21;0.17;-0.33;286.68;-18.05;19.66
9742;-6.67;19.60;5.15;0.24;0.21;-0.35;286.68;-45.51;96.07
9750;-7.05;19.60;-6.11;0.24;0.21;-0.35;286.68;-92.21;112.79
9759;1.14;19.60;-15.00;0.24;0.21;-0.35;286.36;-85.79;97.57
9768;6.93;19.60;-14.53;0.22;0.27;-0.40;-77.56;18.51;81.27
9777;4.93;18.65;-10.10;0.22;0.27;-0.40;-286.72;107.35;65.35
9786;1.29;12.30;-3.85;0.22;0.27;-0.40;-286.72;66.37;33.93
9794;-0.59;6.19;6.74;0.21;0.22;-0.36;-286.72;-32.74;-3.56
9803;0.92;0.64;13.59;0.21;0.22;-0.36;-182.55;-88.67;-26.17
9812;2.89;-2.47;17.90;0.21;0.22;-0.36;-42.18;-67.02;-18.44
9821;1.98;-1.56;16.80;0.19;0.22;-0.36;45.61;-24.13;5.49
9830;1.19;1.33;14.17;0.19;0.22;-0.36;94.41;26.85;12.89
9839;0.48;3.99;11.17;0.19;0.22;-0.36;117.96;43.27;16.95
9848;0.58;5.53;7.83;0.19;0.23;-0.37;122.25;44.01;17.39
9857;0.83;6.51;5.82;0.19;0.23;-0.37;111.40;36.69;12.41
9865;1.08;7.19;4.56;0.19;0.23;-0.37;85.79;26.22;6.98
9874;1.52;6.93;4.33;0.20;0.24;-0.38;51.65;15.42;2.28
9883;2.04;6.28;4.98;0.20;0.24;-0.38;16.32;2.67;-1.58
9892;2.64;5.04;5.87;0.20;0.24;-0.38;-12.59;-4.00;-5.55
9901;2.83;3.81;7.19;0.19;0.24;-0.36;-22.30;-11.07;-8.15
9910;2.47;2.61;8.68;0.19;0.24;-0.36;-22.36;-16.57;-11.12
9918;2.43;1.42;9.58;0.19;0.24;-0.36;-17.41;-18.75;-13.05
9927;2.13;0.58;10.38;0.20;0.26;-0.37;-11.63;-15.36;-12.35
9936;1.71;0.29;10.84;0.20;0.26;-0.37;-7.46;-8.81;-6.26
9945;1.55;0.45;11.11;0.20;0.26;-0.37;-5.76;-0.76;-0.66
9953;1.51;0.95;11.10;0.20;0.25;-0.36;-2.98;4.78;3.25
9962;1.38;1.90;10.85;0.20;0.25;-0.36;4.30;6.76;5.37
9971;1.28;2.59;10.48;0.20;0.25;-0.36;15.24;3.53;2.79
9980;1.33;2.89;10.25;0.20;0.25;-0.37;25.08;-2.72;-2.44
9989;1.26;2.94;10.19;0.20;0.25;-0.37;28.90;-6.18;-5.62
9997;1.21;2.68;10.15;0.20;0.28;-0.37;28.25;-6.52;-7.74
10006;0.97;2.34;10.31;0.20;0.25;-0.37;24.74;-1.97;-9.05
10015;0.64;1.84;10.20;0.20;0.25;-0.37;17.85;3.63;-9.86
10024;0.25;1.47;10.13;0.19;0.25;-0.37;14.52;9.43;-8.02
10033;0.03;1.17;9.82;0.19;0.25;-0.37;15.49;11.59;-4.07
10042;-0.08;1.09;9.45;0.19;0.25;-0.37;23.27;9.16;-1.03
10050;-0.10;1.28;9.07;0.20;0.26;-0.37;31.51;4.25;1.68
10059;0.04;1.68;8.98;0.20;0.26;-0.37;36.98;-0.38;3.91
10068;0.34;2.07;8.70;0.20;0.26;-0.37;39.96;-2.52;4.14
10077;0.37;2.36;8.30;0.20;0.27;-0.37;36.90;-3.06;3.96
10086;0.33;2.41;8.17;0.20;0.27;-0.37;29.14;-2.14;5.22
10094;0.61;2.34;7.99;0.20;0.27;-0.37;20.90;-0.47;6.89
10103;0.71;2.36;8.00;0.20;0.27;-0.38;12.77;1.20;7.59
10112;0.94;2.55;8.36;0.20;0.27;-0.38;8.20;2.90;7.58
10121;1.11;2.77;8.40;0.20;0.27;-0.38;3.23;1.64;5.67
10130;1.05;2.82;8.34;0.19;0.27;-0.37;-2.00;0.43;3.28
10138;0.81;2.70;8.27;0.19;0.27;-0.37;-2.11;-2.63;2.13
10147;0.88;2.45;8.47;0.19;0.27;-0.37;-2.46;-5.63;1.88
10156;1.05;2.30;8.58;0.20;0.27;-0.38;1.40;-8.51;2.13
10165;1.29;2.27;8.73;0.20;0.27;-0.38;7.95;-10.59;2.01
10174;1.41;2.54;8.79;0.20;0.27;-0.38;10.42;-10.51;0.60
10183;1.37;2.79;8.98;0.19;0.27;-0.38;6.30;-8.01;0.15
10191;1.41;2.90;9.24;0.19;0.27;-0.38;-2.20;-4.84;0.67
10200;1.51;2.80;9.40;0.19;0.27;-0.38;-7.78;-1.32;0.31
10209;1.45;2.69;9.34;0.19;0.27;-0.39;-7.55;0.74;0.02
10218;1.38;2.57;9.19;0.19;0.27;-0.39;-1.45;-0.63;-0.74
10227;1.25;2.58;8.95;0.19;0.27;-0.39;7.03;-4.80;-1.70
10236;1.25;2.62;8.94;0.19;0.28;-0.39;15.49;-11.58;-3.48
10244;1.26;2.71;8.97;0.19;0.28;-0.39;21.11;-15.66;-5.11
10253;1.28;2.76;9.09;0.19;0.28;-0.39;19.08;-14.77;-6.15
10262;1.24;2.66;9.16;0.19;0.28;-0.39;10.32;-8.49;-6.33
10271;1.03;2.46;9.42;0.19;0.28;-0.39;-1.59;0.59;-4.56
10280;0.79;2.36;9.60;0.19;0.28;-0.38;-7.59;7.46;-2.36
10289;0.71;2.04;9.68;0.19;0.28;-0.38;-7.51;10.79;-0.29
10297;0.63;2.00;9.63;0.19;0.28;-0.38;-0.85;8.43;0.30
10306;0.67;2.15;9.31;0.19;0.29;-0.38;9.84;2.90;-0.02
10315;0.72;2.25;9.08;0.19;0.29;-0.38;20.04;-3.17;-1.07
10324;0.79;2.35;8.89;0.19;0.29;-0.38;26.57;-9.02;-1.88
10333;0.88;2.54;8.88;0.19;0.28;-0.38;30.03;-13.59;-2.13
10341;0.87;2.60;8.92;0.19;0.28;-0.38;27.50;-14.61;-3.09
10350;0.76;2.42;9.11;0.19;0.28;-0.38;21.74;-13.35;-3.13
10359;0.63;2.15;9.29;0.19;0.29;-0.40;16.20;-10.67;-1.84
10368;0.64;1.76;9.58;0.19;0.29;-0.40;14.67;-7.83;-0.33
10376;0.63;1.55;9.79;0.19;0.29;-0.40;17.83;-5.92;1.29
10385;0.52;1.38;9.97;0.19;0.30;-0.39;24.21;-5.37;2.61
10394;0.52;1.40;9.96;0.19;0.30;-0.39;34.73;-5.79;3.62
10403;0.61;1.40;9.84;0.19;0.30;-0.39;46.68;-9.20;5.14
10412;0.41;1.64;9.82;0.18;0.30;-0.39;62.81;-13.72;4.16
10421;0.39;1.72;9.58;0.18;0.30;-0.39;79.76;-23.22;2.17
10430;0.30;1.81;9.60;0.18;0.30;-0.39;91.22;-29.91;0.42
10438;0.29;1.74;9.63;0.18;0.32;-0.40;98.81;-35.74;-0.98
10447;0.29;1.48;9.53;0.18;0.32;-0.40;101.77;-38.94;-2.06
10456;0.16;1.20;9.70;0.18;0.32;-0.40;102.93;-38.53;-1.33
10465;-0.08;0.79;9.89;0.17;0.34;-0.41;105.38;-36.43;-0.33
10474;-0.44;0.37;10.26;0.17;0.34;-0.41;109.10;-33.78;1.33
10482;-0.76;0.01;10.51;0.17;0.34;-0.41;116.46;-32.48;3.23
10491;-0.94;-0.22;10.55;0.16;0.37;-0.41;124.10;-29.97;6.23
10500;-1.15;-0.27;10.65;0.16;0.37;-0.41;132.59;-26.68;10.63
10509;-1.29;-0.21;10.67;0.16;0.37;-0.41;142.27;-25.17;14.58
10518;-1.38;-0.24;10.66;0.16;0.38;-0.41;151.79;-26.73;16.92
10527;-1.51;-0.26;10.68;0.16;0.38;-0.41;163.41;-31.99;17.16
10536;-1.58;-0.25;10.87;0.16;0.38;-0.42;178.45;-38.21;16.91
10544;-1.56;-0.37;10.92;0.15;0.42;-0.42;193.89;-46.45;13.45
10553;-1.49;-0.49;10.80;0.15;0.42;-0.42;207.16;-55.90;13.48
10562;-1.31;-0.59;10.75;0.14;0.46;-0.43;217.95;-59.33;11.19
10571;-1.10;-1.22;10.07;0.14;0.46;-0.43;221.76;-61.70;8.30
10580;-1.07;-1.69;9.68;0.14;0.46;-0.43;222.92;-56.68;7.30
10589;-1.37;-1.82;9.29;0.13;0.50;-0.41;217.38;-52.25;11.10
10597;-1.58;-2.10;9.09;0.13;0.50;-0.41;207.51;-49.76;16.04
10606;-1.85;-2.21;8.82;0.13;0.50;-0.41;196.11;-47.57;22.63
10615;-2.08;-2.21;8.76;0.12;0.54;-0.41;183.54;-47.01;28.03
10624;-2.35;-2.59;9.00;0.12;0.54;-0.41;174.93;-51.96;32.20
10633;-2.36;-2.91;9.15;0.12;0.54;-0.41;173.40;-59.72;34.77
10642;-2.47;-3.29;9.47;0.11;0.57;-0.40;179.81;-68.33;35.04
10650;-2.35;-3.91;9.70;0.11;0.57;-0.40;192.20;-77.86;35.24
10659;-1.90;-4.32;9.60;0.11;0.57;-0.40;208.36;-85.76;33.88
10668;-1.30;-4.83;9.19;0.11;0.61;-0.38;222.85;-93.42;28.02
10677;-1.12;-5.35;8.74;0.11;0.61;-0.38;231.22;-93.94;22.54
10686;-1.26;-5.26;8.18;0.11;0.61;-0.38;228.22;-91.30;20.19
10695;-1.30;-5.16;7.54;0.09;0.64;-0.37;214.82;-84.74;21.45
10703;-1.58;-5.35;7.17;0.09;0.64;-0.37;195.48;-75.67;25.47
10712;-1.77;-5.30;7.17;0.09;0.64;-0.37;175.66;-67.23;27.56
10721;-1.95;-5.60;7.31;0.08;0.68;-0.36;156.10;-59.19;27.22
10730;-1.91;-6.15;7.33;0.08;0.68;-0.36;146.94;-53.62;24.47
10739;-2.03;-6.76;7.39;0.08;0.68;-0.36;145.49;-49.06;21.20
10748;-2.06;-7.36;7.34;0.07;0.70;-0.33;153.62;-50.31;18.52
10756;-1.79;-7.92;6.90;0.07;0.70;-0.33;171.96;-56.15;13.30
10765;-1.69;-8.06;6.38;0.07;0.70;-0.33;190.13;-63.88;5.93
10774;-1.62;-7.98;6.00;0.07;0.73;-0.32;204.89;-70.59;0.26
10783;-1.69;-7.84;5.58;0.07;0.73;-0.32;212.21;-76.35;-1.71
10792;-1.86;-7.58;4.94;0.07;0.73;-0.30;207.21;-81.42;-2.09
10801;-2.25;-7.67;4.79;0.05;0.75;-0.30;196.34;-82.71;0.43
10810;-2.45;-7.93;4.58;0.05;0.75;-0.30;186.43;-81.70;1.15
10818;-2.69;-7.97;4.32;0.04;0.78;-0.26;184.21;-82.08;0.60
10827;-2.58;-8.26;3.92;0.04;0.78;-0.26;184.50;-82.32;1.12
10836;-2.28;-8.91;3.39;0.04;0.78;-0.26;184.35;-83.37;3.48
10845;-1.96;-9.42;2.79;0.04;0.80;-0.24;183.24;-85.64;8.04
10854;-1.68;-9.34;2.32;0.04;0.80;-0.24;182.58;-82.38;12.13
10863;-1.56;-9.17;2.00;0.04;0.80;-0.24;176.71;-77.25;13.27
10872;-1.60;-9.09;1.79;0.03;0.83;-0.20;167.75;-70.48;11.94
10880;-1.77;-8.80;1.73;0.03;0.83;-0.20;154.10;-63.40;11.54
10889;-1.97;-8.55;1.59;0.03;0.83;-0.20;128.60;-54.69;13.84
10898;-2.15;-8.59;1.40;0.03;0.83;-0.18;105.81;-40.23;13.65
10907;-2.34;-8.75;1.48;0.03;0.83;-0.18;87.36;-23.36;13.03
10916;-2.26;-9.04;1.38;0.03;0.83;-0.18;72.98;-11.71;13.83
10924;-2.36;-9.46;1.37;0.03;0.84;-0.17;66.82;-4.49;15.82
10933;-2.31;-9.35;1.29;0.03;0.84;-0.17;64.08;-3.72;18.18
10942;-1.97;-9.34;1.14;0.03;0.84;-0.17;64.54;-9.63;19.21
10951;-1.65;-9.21;1.29;0.03;0.85;-0.16;66.64;-18.40;18.59
10960;-1.26;-9.22;1.22;0.03;0.85;-0.16;67.62;-29.73;18.83
10969;-0.72;-9.19;1.10;0.03;0.85;-0.16;64.29;-35.73;17.94
10978;-0.29;-9.20;1.36;0.03;0.85;-0.14;56.91;-39.07;15.63
10986;-0.04;-9.38;1.65;0.03;0.85;-0.14;50.18;-34.48;9.58
10995;-0.01;-9.59;1.82;0.03;0.85;-0.14;38.88;-19.64;8.91
11004;0.01;-9.75;1.70;0.03;0.86;-0.15;36.01;-3.98;11.67
11013;-0.33;-9.80;1.54;0.03;0.86;-0.15;36.39;12.20;13.55
11022;-0.66;-9.89;1.34;0.03;0.86;-0.15;44.07;16.75;11.36
11031;-0.91;-9.92;0.94;0.04;0.85;-0.14;55.69;11.71;6.72
11039;-1.08;-10.03;0.61;0.04;0.85;-0.14;69.63;-0.55;2.62
11048;-1.12;-9.92;0.28;0.04;0.85;-0.13;81.44;-15.11;0.86
11057;-1.09;-9.82;-0.03;0.03;0.85;-0.13;89.01;-25.12;0.60
11066;-1.09;-9.69;-0.42;0.03;0.85;-0.13;88.56;-30.69;2.21
11075;-1.00;-9.54;-0.68;0.04;0.86;-0.11;80.26;-29.60;6.78
11084;-0.93;-9.61;-1.08;0.04;0.86;-0.11;66.20;-21.43;12.97
11093;-0.93;-9.47;-1.02;0.04;0.86;-0.11;50.62;-15.07;19.15
11101;-0.91;-9.44;-1.12;0.04;0.87;-0.09;33.71;-9.14;22.15
11110;-0.95;-9.46;-1.07;0.04;0.87;-0.09;23.53;-4.49;20.48
11119;-1.08;-9.70;-0.96;0.04;0.87;-0.09;15.20;-1.65;16.27
11128;-0.93;-10.28;-0.86;0.04;0.85;-0.10;12.85;2.01;16.12
11137;-0.90;-10.74;-0.60;0.04;0.85;-0.10;15.65;5.01;20.62
11146;-0.89;-10.74;-0.61;0.04;0.85;-0.10;22.60;5.25;25.68
11154;-1.06;-10.76;-0.61;0.05;0.86;-0.09;31.65;4.24;27.79
11163;-1.28;-10.62;-0.82;0.05;0.86;-0.09;41.49;0.96;24.84
11172;-1.29;-10.55;-1.23;0.05;0.86;-0.09;47.24;-2.13;20.12
11181;-1.20;-10.55;-1.57;0.05;0.85;-0.07;48.69;-2.64;17.20
11190;-1.16;-10.62;-2.04;0.05;0.85;-0.07;43.37;-1.89;16.53
11199;-0.93;-10.37;-2.22;0.05;0.85;-0.07;36.16;-0.95;17.94
11207;-1.03;-10.36;-2.47;0.07;0.86;-0.07;28.25;-0.57;18.31
11216;-1.07;-10.30;-2.61;0.07;0.86;-0.07;18.73;-1.02;17.81
11225;-1.20;-10.33;-2.72;0.07;0.86;-0.07;10.21;-0.84;17.37
11234;-1.18;-10.40;-2.69;0.06;0.85;-0.08;1.59;0.04;16.58
11243;-1.24;-10.54;-2.62;0.06;0.85;-0.08;-7.87;1.05;16.80
11252;-1.25;-10.50;-2.48;0.06;0.85;-0.08;-15.25;2.09;18.13
11260;-1.40;-10.23;-2.18;0.07;0.86;-0.06;-23.22;2.76;18.99
11269;-1.24;-9.96;-1.82;0.07;0.86;-0.06;-36.69;1.50;19.09
11278;-1.05;-9.99;-1.49;0.07;0.86;-0.06;-48.61;2.72;19.17
11287;-1.09;-10.01;-1.10;0.07;0.85;-0.07;-56.44;3.91;20.83
11296;-1.12;-9.99;-0.63;0.07;0.85;-0.07;-59.12;2.56;22.14
11305;-0.92;-10.01;-0.45;0.07;0.85;-0.09;-55.57;0.89;23.94
11314;-0.90;-9.88;-0.13;0.07;0.85;-0.09;-45.12;-3.50;23.27
11323;-0.98;-9.82;0.18;0.07;0.85;-0.09;-34.84;-6.89;20.95
11331;-0.81;-9.79;0.42;0.08;0.84;-0.08;-26.42;-9.87;19.48
11340;-1.18;-9.78;0.43;0.08;0.84;-0.08;-19.08;-10.08;17.61
11349;-1.08;-9.75;0.33;0.08;0.84;-0.08;-16.08;-10.27;17.79
11358;-0.73;-9.65;0.27;0.08;0.84;-0.09;-15.41;-8.60;21.11
11367;-0.34;-9.47;0.32;0.08;0.84;-0.09;-16.87;-5.22;22.94
11376;0.14;-9.24;0.36;0.08;0.84;-0.09;-18.37;-2.19;22.47
11384;0.48;-9.12;0.27;0.08;0.84;-0.11;-18.09;0.08;19.45
11393;0.70;-9.16;0.26;0.08;0.84;-0.11;-16.30;1.91;14.48
11402;0.84;-9.23;0.17;0.08;0.84;-0.11;-12.66;1.05;10.29
11411;1.02;-9.28;0.13;0.08;0.84;-0.09;-8.28;-1.64;8.14
11420;1.06;-9.20;0.09;0.08;0.84;-0.09;-3.83;-5.57;7.26
11429;1.04;-9.15;0.13;0.08;0.84;-0.09;-0.80;-8.24;4.65
11437;1.04;-9.19;0.12;0.09;0.84;-0.10;0.84;-8.87;2.97
11446;0.95;-9.16;0.03;0.09;0.84;-0.10;1.65;-8.36;1.59
11455;0.84;-9.25;-0.07;0.09;0.84;-0.10;0.98;-6.91;1.14
11464;0.72;-9.18;-0.14;0.09;0.84;-0.11;0.04;-5.85;0.74
11473;0.60;-9.07;-0.13;0.09;0.84;-0.11;-1.60;-5.82;-1.89
11481;0.52;-9.16;-0.20;0.09;0.84;-0.11;-3.58;-5.46;-4.66
11490;0.43;-9.28;-0.12;0.10;0.84;-0.10;-6.53;-4.25;-5.34
11499;0.37;-9.41;-0.08;0.10;0.84;-0.10;-7.57;-2.07;-4.76
11508;0.08;-9.44;0.18;0.10;0.84;-0.10;-6.78;-0.29;-5.25
11517;-0.14;-9.52;0.28;0.09;0.83;-0.12;-3.16;0.67;-8.49
11525;-0.38;-9.82;0.23;0.09;0.83;-0.12;2.14;1.88;-11.54
11534;-0.64;-9.98;0.11;0.09;0.83;-0.12;7.41;2.83;-11.68
11543;-0.89;-10.03;0.03;0.09;0.84;-0.11;10.40;4.36;-9.93
11552;-0.99;-9.92;-0.07;0.09;0.84;-0.11;9.33;4.92;-9.01
11561;-1.10;-9.96;-0.32;0.09;0.84;-0.10;6.11;5.91;-8.38
11569;-1.16;-10.06;-0.35;0.08;0.84;-0.10;3.06;6.29;-7.33
11578;-1.29;-9.97;-0.42;0.08;0.84;-0.10;0.21;4.19;-7.63
11587;-1.28;-10.12;-0.40;0.09;0.84;-0.10;-1.35;1.64;-8.43
11596;-1.26;-10.21;-0.41;0.09;0.84;-0.10;-2.27;0.51;-8.24
11605;-1.20;-10.22;-0.29;0.09;0.84;-0.10;-2.20;0.12;-7.80
11614;-1.22;-10.35;-0.12;0.08;0.84;-0.10;-1.44;0.63;-8.02
11622;-1.18;-10.43;-0.03;0.08;0.84;-0.10;0.00;1.73;-7.87
11631;-1.20;-10.45;0.06;0.08;0.84;-0.10;4.45;3.57;-6.65
11640;-1.18;-10.40;-0.00;0.08;0.84;-0.09;3.55;4.63;-5.00
11649;-1.21;-10.36;-0.09;0.08;0.84;-0.09;4.03;4.76;-3.80
11658;-1.06;-10.31;-0.09;0.08;0.84;-0.09;4.06;3.51;-2.98
11667;-1.01;-10.23;-0.13;0.08;0.85;-0.09;4.09;2.18;-1.45
11675;-0.86;-10.10;-0.16;0.08;0.85;-0.09;3.38;1.00;-1.25
11684;-0.86;-10.05;-0.27;0.08;0.85;-0.09;3.49;-0.50;-1.60
11693;-0.76;-9.93;-0.34;0.09;0.84;-0.08;3.41;-2.59;-2.14
11702;-0.74;-9.91;-0.51;0.09;0.84;-0.08;3.46;-3.92;-2.77
11711;-0.62;-9.79;-0.53;0.09;0.84;-0.08;2.90;-5.07;-3.32
11720;-0.49;-9.72;-0.48;0.07;0.84;-0.10;3.30;-4.51;-3.96
11728;-0.42;-9.63;-0.31;0.07;0.84;-0.10;3.78;-3.77;-5.40
11737;-0.31;-9.62;-0.41;0.07;0.84;-0.10;4.55;-2.54;-7.47
11746;-0.21;-9.59;-0.38;0.08;0.85;-0.09;5.23;-0.14;-8.56
11755;-0.10;-9.57;-0.60;0.08;0.85;-0.09;5.42;1.66;-9.59
11764;-0.05;-9.59;-0.58;0.08;0.85;-0.09;5.32;2.25;-13.29
11772;-0.01;-9.74;-0.73;0.07;0.85;-0.08;5.57;1.72;-12.99
11781;-0.02;-9.87;-0.97;0.07;0.85;-0.08;6.40;-0.73;-14.01
11790;0.01;-9.92;-1.05;0.07;0.85;-0.08;7.10;-4.46;-15.27
11799;0.04;-9.96;-1.24;0.08;0.84;-0.09;8.32;-9.12;-16.76
11808;0.13;-10.00;-1.14;0.08;0.84;-0.09;9.22;-14.46;-17.75
11816;0.29;-10.00;-1.06;0.08;0.84;-0.09;9.32;-18.93;-18.24
11825;0.49;-10.01;-1.03;0.07;0.85;-0.11;8.64;-22.30;-19.31
11834;0.74;-10.14;-0.93;0.07;0.85;-0.11;7.42;-24.51;-20.55
11843;0.86;-10.36;-0.72;0.07;0.85;-0.09;8.40;-25.50;-22.30
11852;0.99;-10.41;-0.83;0.07;0.85;-0.09;10.43;-25.75;-23.36
11861;1.18;-10.34;-0.87;0.07;0.85;-0.09;11.47;-23.84;-24.24
11870;1.33;-10.21;-0.99;0.07;0.86;-0.09;10.71;-19.95;-25.73
11878;1.67;-10.14;-1.11;0.07;0.86;-0.09;6.95;-13.81;-28.23
11887;1.79;-10.10;-1.07;0.07;0.86;-0.09;-0.55;-2.79;-29.69
11896;2.07;-10.17;-1.07;0.06;0.85;-0.09;-13.07;10.31;-29.17
11905;2.45;-10.24;-0.82;0.06;0.85;-0.09;-28.31;26.32;-28.10
11914;2.88;-10.54;-0.82;0.06;0.85;-0.09;-42.07;41.55;-25.03
11923;2.93;-10.54;-0.45;0.05;0.85;-0.08;-53.37;56.08;-21.34
11932;3.05;-10.62;-0.22;0.05;0.85;-0.08;-61.59;67.55;-18.54
11941;3.29;-10.69;-0.19;0.05;0.85;-0.08;-65.22;76.38;-15.91
11949;3.44;-10.65;-0.21;0.05;0.86;-0.10;-66.57;81.67;-12.53
11958;3.57;-10.75;-0.21;0.05;0.86;-0.10;-68.43;85.68;-7.75
11967;3.68;-10.70;-0.35;0.05;0.86;-0.10;-71.23;88.72;-3.24
11976;3.72;-10.50;-0.57;0.06;0.85;-0.10;-74.43;89.40;0.94
11985;3.95;-10.26;-0.67;0.06;0.85;-0.10;-78.17;88.10;4.80
11994;4.10;-10.13;-0.84;0.06;0.85;-0.10;-83.45;85.79;7.91
12003;4.28;-9.90;-0.66;0.06;0.85;-0.12;-90.86;82.92;10.02
12011;4.58;-9.77;-0.66;0.06;0.85;-0.12;-102.27;82.20;15.17
12020;4.93;-9.61;-0.54;0.06;0.85;-0.12;-122.82;84.20;24.12
12029;5.75;-9.57;-0.89;0.06;0.83;-0.13;-142.26;89.69;40.67
12038;6.51;-8.85;-1.41;0.06;0.83;-0.13;-155.34;96.50;69.29
12047;7.87;-7.70;-1.94;0.06;0.83;-0.13;-159.32;86.70;108.16
12056;10.41;-5.35;-1.92;0.08;0.82;-0.16;-189.62;49.60;131.29
12064;14.62;-0.42;-1.61;0.08;0.82;-0.16;-243.75;-12.85;127.25
12073;19.16;6.95;-2.15;0.08;0.82;-0.20;-286.72;-41.59;59.66
12082;19.60;13.46;-2.35;0.11;0.79;-0.20;-286.72;7.00;-93.69
12091;18.76;17.59;-1.90;0.11;0.79;-0.20;-286.72;151.10;-282.49
12100;6.69;19.60;0.07;0.08;0.76;-0.27;-286.72;263.18;-286.72
12109;-7.94;19.60;1.76;0.08;0.76;-0.27;-286.72;286.68;-286.72
12118;-19.60;19.60;5.93;0.08;0.76;-0.27;-286.72;286.68;-286.72
12126;-19.60;19.60;14.90;0.09;0.65;-0.39;-286.72;286.68;-281.31
12135;-19.60;19.60;19.60;0.09;0.65;-0.39;-286.72;267.43;-178.46
12144;-19.60;19.60;19.60;0.09;0.65;-0.39;-286.72;118.73;-33.19
12153;-19.60;19.60;19.60;0.11;0.37;-0.44;-286.72;34.69;71.08
12162;-14.73;-6.24;19.60;0.11;0.37;-0.44;-286.72;88.69;6.99
12171;3.07;-19.60;19.60;0.11;0.37;-0.44;-286.72;181.80;-160.47
12179;12.50;-19.60;19.60;0.15;0.20;-0.36;-232.58;119.90;-201.35
12188;0.77;-19.60;19.60;0.15;0.20;-0.36;277.59;168.05;-127.25
12197;-17.66;9.70;6.76;0.15;0.20;-0.36;286.68;146.17;127.79
12206;-19.60;19.60;-1.12;0.21;0.23;-0.39;286.68;39.64;190.22
12215;-14.29;19.60;-14.68;0.21;0.23;-0.39;286.68;-108.19;87.45
12224;4.09;19.60;-17.26;0.21;0.23;-0.39;206.09;-92.89;76.57
12232;10.80;19.60;-12.10;0.19;0.32;-0.42;-198.74;70.94;83.20
12241;7.90;19.60;-6.92;0.19;0.32;-0.42;-286.72;177.21;60.95
12250;1.35;14.60;-0.91;0.19;0.32;-0.42;-286.72;105.26;7.30
12259;-0.19;7.43;7.49;0.20;0.27;-0.40;-286.43;-6.97;-44.52
12268;0.20;0.68;13.70;0.20;0.27;-0.40;-162.32;-59.56;-51.16
12277;1.29;-3.71;16.61;0.20;0.27;-0.40;-44.97;-31.76;-40.92
12285;-0.36;-3.16;15.53;0.18;0.25;-0.38;33.47;-4.22;-19.69
12294;-0.98;-0.74;12.65;0.18;0.25;-0.38;69.43;28.21;-3.80
12303;-1.28;1.97;9.97;0.18;0.25;-0.38;89.62;35.77;5.37
12312;-0.83;3.61;7.51;0.19;0.26;-0.38;100.49;32.12;4.66
12321;-0.38;4.86;5.94;0.19;0.26;-0.38;96.22;27.30;6.48
12329;0.04;5.44;5.02;0.19;0.26;-0.38;77.08;21.37;9.63
12338;0.97;5.56;4.58;0.19;0.28;-0.40;52.29;12.02;7.64
12347;1.78;5.08;4.84;0.19;0.28;-0.40;24.53;3.96;2.73
12356;2.64;4.50;5.62;0.19;0.29;-0.39;5.11;-3.09;-0.55
12365;3.09;3.76;6.59;0.19;0.29;-0.39;-6.42;-8.11;-6.21
12373;3.30;3.14;7.87;0.19;0.29;-0.39;-14.11;-13.34;-9.06
12382;3.35;2.42;9.10;0.18;0.29;-0.38;-21.48;-14.70;-11.93
12391;3.13;1.47;9.92;0.18;0.29;-0.38;-25.22;-10.66;-13.41
12400;2.93;0.85;10.24;0.18;0.29;-0.38;-24.90;-3.15;-13.10
12409;2.61;0.59;10.29;0.18;0.28;-0.40;-19.43;0.98;-12.36
12418;2.03;0.73;10.46;0.18;0.28;-0.40;-11.16;3.54;-10.38
12427;1.58;1.18;10.54;0.18;0.28;-0.40;-1.96;1.72;-8.24
12436;1.18;1.51;10.64;0.18;0.29;-0.39;5.00;-0.88;-7.97
12444;0.94;1.56;10.69;0.18;0.29;-0.39;6.92;-0.85;-7.41
12453;0.60;1.51;10.86;0.18;0.29;-0.39;7.95;0.23;-6.52
12462;0.35;1.42;10.83;0.18;0.29;-0.40;10.89;-0.87;-6.66
12471;0.22;1.30;10.46;0.18;0.29;-0.40;15.14;-3.27;-8.22
12480;0.11;1.19;10.41;0.18;0.29;-0.40;17.64;-3.82;-9.37
12488;0.01;0.99;10.27;0.18;0.29;-0.39;17.12;-0.79;-9.12
12497;-0.07;1.08;10.27;0.18;0.29;-0.39;13.55;4.99;-7.23
12506;-0.02;1.28;10.28;0.18;0.29;-0.39;7.61;12.29;-4.74
12515;0.05;1.33;10.02;0.18;0.30;-0.40;3.99;19.04;-2.61
12524;0.11;1.38;9.74;0.18;0.30;-0.40;6.95;21.55;-0.57
12532;0.00;1.49;9.41;0.18;0.30;-0.40;15.51;19.82;1.54
12541;-0.00;1.56;9.05;0.19;0.30;-0.38;26.46;11.86;3.61
12550;0.08;1.68;8.71;0.19;0.30;-0.38;37.04;5.35;4.46
12559;0.20;1.86;8.48;0.19;0.30;-0.38;43.56;-1.03;4.93
12568;0.42;2.14;8.19;0.19;0.31;-0.39;44.29;-4.93;4.69
12576;0.66;2.37;8.06;0.19;0.31;-0.39;38.40;-6.62;4.56
12585;0.69;2.46;7.80;0.19;0.31;-0.39;27.26;-4.99;3.48
12594;0.66;2.39;7.78;0.19;0.31;-0.39;15.65;-4.01;2.73
12603;0.90;2.22;8.12;0.19;0.31;-0.39;4.78;-3.77;2.20
12612;1.00;2.18;8.40;0.19;0.31;-0.43;-6.08;-3.68;1.42
12620;1.14;2.07;8.89;0.18;0.31;-0.40;-8.44;-2.99;0.85
12629;1.32;2.07;9.27;0.18;0.31;-0.40;-7.19;-3.19;0.09
12638;1.35;2.07;9.31;0.19;0.31;-0.39;-1.96;-4.73;-1.79
12647;1.16;2.02;9.31;0.19;0.31;-0.39;4.18;-6.63;-3.78
12656;0.93;1.95;9.14;0.19;0.31;-0.39;5.97;-8.06;-4.40
12665;0.76;1.85;9.14;0.18;0.31;-0.39;4.28;-8.04;-3.43
12673;0.80;1.77;9.21;0.18;0.31;-0.39;-0.08;-7.18;-1.00
12682;0.97;1.76;9.44;0.18;0.31;-0.39;-2.29;-6.76;0.52
12691;1.11;1.71;9.70;0.19;0.32;-0.40;-2.30;-5.77;0.61
12700;1.29;1.73;9.84;0.19;0.32;-0.40;0.09;-4.56;0.41
12708;1.22;1.94;9.87;0.19;0.32;-0.40;6.03;-2.31;-0.14
12717;1.20;1.83;9.76;0.18;0.31;-0.41;10.07;-1.88;-1.78
12726;1.04;1.82;9.38;0.18;0.31;-0.41;14.48;-3.38;-4.30
12735;0.88;1.67;9.01;0.18;0.31;-0.41;17.04;-4.52;-4.59
12744;0.75;1.60;8.89;0.18;0.32;-0.40;17.18;-6.50;-3.74
12753;0.63;1.68;8.99;0.18;0.32;-0.40;16.27;-8.23;-3.37
12761;0.52;1.69;9.19;0.18;0.32;-0.40;10.57;-8.34;-2.69
12770;0.54;1.56;9.50;0.17;0.33;-0.40;3.81;-6.21;-0.98
12779;0.74;1.45;9.72;0.17;0.33;-0.40;-1.50;-1.91;0.70
12788;0.72;1.32;9.79;0.17;0.33;-0.40;-3.45;4.26;1.33
12796;0.69;1.23;9.85;0.17;0.32;-0.39;0.94;4.51;1.51
12805;0.71;1.41;9.65;0.17;0.32;-0.39;8.78;3.74;1.26
12814;0.56;1.52;9.54;0.17;0.32;-0.39;14.35;0.25;0.50
12823;0.62;1.67;9.20;0.17;0.32;-0.40;18.91;-4.32;-0.81
12832;0.57;1.78;9.13;0.17;0.32;-0.40;19.64;-6.36;-0.58
12841;0.62;1.90;9.22;0.17;0.32;-0.40;15.82;-7.00;0.62
12849;0.74;1.93;9.23;0.18;0.33;-0.40;9.83;-5.49;1.15
12858;0.83;1.90;9.42;0.18;0.33;-0.40;2.75;-2.95;0.92
12867;0.80;1.76;9.57;0.18;0.33;-0.40;-0.87;-0.67;0.82
12876;0.90;1.50;9.58;0.18;0.33;-0.40;-0.73;0.29;1.09
12885;1.01;1.35;9.46;0.18;0.33;-0.40;3.28;1.08;1.22
12893;0.97;1.58;9.33;0.18;0.33;-0.40;10.18;0.52;0.22
12902;0.87;1.69;9.40;0.17;0.33;-0.40;15.35;-1.15;-0.48
12911;0.83;1.68;9.31;0.17;0.33;-0.40;20.12;-4.66;-1.29
12920;0.72;1.64;9.32;0.17;0.33;-0.39;23.21;-7.10;-1.91
12929;0.71;1.43;9.34;0.17;0.33;-0.39;25.16;-9.23;-2.26
12938;0.64;1.34;9.36;0.17;0.33;-0.39;25.30;-9.51;-2.97
12946;0.67;1.33;9.40;0.18;0.34;-0.41;22.52;-6.47;-2.75
12955;0.63;1.35;9.32;0.18;0.34;-0.41;19.16;-2.56;-1.63
12964;0.48;1.36;9.45;0.18;0.34;-0.41;16.58;-0.46;-0.64
12973;0.40;1.25;9.43;0.18;0.34;-0.41;16.36;-0.73;-1.04
12981;0.30;1.09;9.42;0.18;0.34;-0.41;20.68;-2.34;-0.03
12990;0.24;0.86;9.68;0.18;0.34;-0.41;27.88;-5.22;0.74
12999;0.09;0.72;9.74;0.17;0.35;-0.41;40.08;-10.36;1.02
13008;-0.21;0.66;9.96;0.17;0.35;-0.41;53.12;-15.87;0.67
13017;-0.36;0.34;10.24;0.17;0.35;-0.41;66.69;-24.42;0.37
13026;-0.49;0.20;10.41;0.16;0.36;-0.41;83.24;-34.17;0.05
13034;-0.58;0.06;10.39;0.16;0.36;-0.41;101.88;-42.59;1.42
13043;-0.57;-0.15;10.38;0.16;0.36;-0.41;119.00;-49.34;3.51
13052;-0.64;0.15;10.29;0.16;0.38;-0.41;136.79;-56.56;5.22
13061;-0.53;0.19;10.31;0.16;0.38;-0.41;154.95;-65.36;4.77
13070;-0.61;0.09;10.26;0.16;0.38;-0.41;169.25;-70.87;3.43
13079;-0.59;-0.00;10.33;0.14;0.41;-0.42;180.13;-75.47;3.16
13087;-0.43;-0.28;10.15;0.14;0.41;-0.42;186.96;-81.85;1.95
13096;-0.49;-0.60;9.95;0.14;0.41;-0.42;187.66;-77.92;0.48
13105;-0.85;-0.68;9.95;0.13;0.44;-0.42;181.68;-69.31;3.42
13114;-1.29;-0.69;9.99;0.13;0.44;-0.42;171.22;-59.00;8.55
13123;-1.59;-1.03;10.13;0.13;0.44;-0.42;159.93;-52.26;13.28
13132;-1.92;-1.35;10.32;0.12;0.48;-0.43;155.88;-47.43;16.85
13140;-2.24;-1.78;10.39;0.12;0.48;-0.43;159.63;-45.49;18.82
13149;-2.50;-2.45;10.33;0.12;0.48;-0.43;171.61;-49.17;17.43
13158;-2.70;-3.04;10.29;0.10;0.52;-0.41;187.16;-55.08;14.50
13167;-3.14;-3.31;10.28;0.10;0.52;-0.41;211.50;-66.34;12.36
13176;-3.37;-3.22;10.26;0.10;0.56;-0.42;230.39;-74.09;10.74
13185;-3.43;-3.07;10.01;0.09;0.56;-0.42;245.39;-82.87;5.72
13193;-3.39;-3.20;9.84;0.09;0.56;-0.42;253.07;-90.04;1.30
13202;-3.36;-3.24;9.51;0.08;0.60;-0.40;253.64;-89.09;-1.59
13211;-3.15;-3.57;9.20;0.08;0.60;-0.40;245.59;-80.20;1.23
13220;-3.13;-4.13;8.85;0.08;0.60;-0.40;229.10;-66.05;7.38
13229;-2.95;-4.49;8.20;0.06;0.64;-0.38;214.16;-53.55;14.62
13238;-3.13;-4.91;7.83;0.06;0.64;-0.38;203.52;-40.98;18.69
13247;-3.38;-5.14;7.89;0.06;0.64;-0.38;198.21;-33.42;16.53
13256;-3.77;-5.42;7.91;0.06;0.69;-0.37;197.96;-29.95;10.66
13264;-3.91;-5.74;7.69;0.06;0.69;-0.37;206.30;-32.34;9.50
13273;-4.20;-5.46;7.58;0.06;0.69;-0.37;215.13;-35.78;12.09
13282;-4.04;-5.56;7.12;0.05;0.72;-0.34;219.91;-44.21;16.01
13291;-3.58;-5.76;6.69;0.05;0.72;-0.34;220.70;-63.88;17.84
13300;-3.25;-6.01;6.43;0.05;0.72;-0.34;220.55;-80.14;14.88
13309;-2.98;-6.09;6.24;0.05;0.75;-0.31;218.02;-90.75;11.59
13318;-2.49;-6.50;5.96;0.05;0.75;-0.31;210.80;-92.29;10.63
13326;-2.29;-6.90;5.92;0.05;0.75;-0.31;198.46;-89.98;13.38
13335;-2.30;-6.99;5.80;0.03;0.78;-0.27;185.13;-82.82;18.99
13344;-2.32;-7.24;5.22;0.03;0.78;-0.27;173.86;-79.23;26.99
13353;-2.33;-7.25;4.95;0.03;0.78;-0.27;164.03;-75.22;29.78
13362;-2.43;-7.53;4.64;0.03;0.79;-0.26;161.00;-74.55;28.94
13371;-2.45;-7.91;4.33;0.03;0.79;-0.26;158.43;-75.92;26.78
13379;-2.48;-8.34;3.91;0.03;0.79;-0.26;155.67;-82.33;25.44
13388;-2.31;-8.48;3.59;0.03;0.81;-0.21;150.32;-89.99;27.50
13397;-1.96;-8.41;3.34;0.03;0.81;-0.21;145.03;-92.97;32.42
13406;-1.46;-8.63;3.14;0.03;0.81;-0.21;137.48;-93.68;37.73
13415;-0.89;-8.34;2.98;0.03;0.82;-0.21;124.85;-84.35;36.04
13423;-0.79;-8.37;2.94;0.03;0.82;-0.21;116.90;-71.64;32.96
13432;-0.83;-8.62;3.15;0.03;0.83;-0.18;107.28;-55.04;30.27
13441;-0.98;-8.99;2.91;0.03;0.83;-0.18;101.48;-40.00;25.95
13450;-1.21;-9.26;2.78;0.03;0.83;-0.18;101.47;-30.04;21.18
13459;-1.65;-9.67;2.89;0.03;0.84;-0.16;107.03;-26.12;13.63
13467;-1.67;-9.94;2.90;0.03;0.84;-0.16;113.64;-32.62;10.03
13476;-1.49;-9.56;2.69;0.03;0.84;-0.16;120.67;-44.32;7.02
13485;-1.30;-9.34;1.91;0.03;0.85;-0.14;130.22;-57.75;-0.72
13494;-1.13;-9.67;0.99;0.03;0.85;-0.14;142.67;-36.37;-19.92
13503;-1.61;-9.51;0.71;0.03;0.85;-0.14;144.86;-33.03;-18.97
13512;-1.78;-9.35;0.25;0.02;0.86;-0.13;132.12;-34.36;-5.41
13520;-1.96;-9.25;-0.06;0.02;0.86;-0.13;111.77;-24.92;9.67
13529;-2.27;-9.12;-0.06;0.02;0.86;-0.13;88.36;-17.39;18.79
13538;-2.18;-9.32;-0.19;0.03;0.87;-0.11;74.22;-13.52;22.91
13547;-2.24;-9.65;-0.36;0.03;0.87;-0.11;69.22;-13.34;21.79
13556;-2.38;-9.89;-0.36;0.03;0.87;-0.11;71.43;-15.80;17.61
13565;-2.22;-10.20;-0.65;0.02;0.87;-0.09;75.01;-17.77;12.95
13573;-1.91;-10.45;-0.96;0.02;0.87;-0.09;75.85;-18.86;10.77
13582;-1.59;-10.59;-1.32;0.02;0.87;-0.09;70.74;-14.02;13.66
13591;-1.10;-10.91;-1.90;0.03;0.86;-0.07;58.06;-4.97;22.16
13600;-1.08;-11.15;-2.10;0.03;0.86;-0.07;44.72;4.87;30.48
13609;-0.95;-11.52;-2.35;0.03;0.86;-0.07;29.78;12.57;34.55
13618;-0.79;-12.06;-2.50;0.03;0.87;-0.07;15.58;17.26;34.52
13626;-0.80;-12.45;-2.55;0.03;0.87;-0.07;6.01;16.61;34.68
13635;-0.83;-12.79;-2.53;0.03;0.87;-0.07;-1.70;10.60;35.78
13644;-1.00;-13.30;-2.52;0.05;0.87;-0.05;-3.98;7.33;37.44
13653;-1.29;-13.41;-2.07;0.05;0.87;-0.05;-5.90;-0.21;42.25
13662;-1.27;-13.52;-1.83;0.05;0.87;-0.05;-6.44;-7.61;47.42
13670;-1.40;-13.17;-1.33;0.06;0.87;-0.07;-4.77;-17.28;50.66
13679;-1.39;-12.38;-0.88;0.06;0.87;-0.07;-4.09;-23.24;52.39
13688;-1.29;-11.52;-0.52;0.06;0.87;-0.07;-4.90;-29.13;52.42
13697;-1.46;-10.58;-0.21;0.06;0.86;-0.06;-3.62;-30.97;51.28
13706;-1.49;-9.75;0.12;0.06;0.86;-0.06;-3.55;-29.25;49.94
13714;-1.54;-9.32;0.25;0.07;0.86;-0.07;-5.19;-24.75;50.30
13723;-1.51;-8.87;0.27;0.07;0.86;-0.07;-6.56;-20.73;53.65
13732;-1.38;-8.43;0.05;0.07;0.86;-0.07;-7.38;-16.59;56.11
13741;-1.34;-8.26;-0.03;0.08;0.85;-0.07;-3.89;-14.95;55.96
13750;-0.95;-8.08;-0.21;0.08;0.85;-0.07;-0.27;-14.52;54.40
13758;-0.51;-7.81;-0.46;0.08;0.85;-0.07;3.46;-17.89;52.67
13767;0.14;-7.57;-0.80;0.09;0.85;-0.07;5.99;-22.92;48.44
13776;0.84;-7.36;-1.12;0.09;0.85;-0.07;5.22;-27.18;44.22
13785;1.32;-7.17;-1.19;0.09;0.85;-0.07;0.17;-31.45;36.56
13794;1.75;-7.12;-1.20;0.11;0.84;-0.07;-10.15;-30.18;33.38
13803;1.74;-7.40;-1.01;0.11;0.84;-0.07;-20.33;-24.19;31.27
13812;2.03;-7.84;-0.81;0.11;0.84;-0.07;-34.69;-13.59;30.71
13820;2.23;-8.29;-0.38;0.11;0.84;-0.09;-42.52;-3.74;32.83
13829;2.39;-8.63;-0.09;0.11;0.84;-0.09;-47.80;3.77;34.51
13838;2.60;-8.73;0.02;0.11;0.84;-0.09;-49.49;7.26;33.17
13847;2.68;-8.92;0.45;0.12;0.83;-0.09;-47.22;7.54;29.50
13856;2.71;-9.15;0.44;0.12;0.83;-0.09;-42.83;6.94;27.11
13865;2.90;-9.30;0.50;0.12;0.83;-0.09;-36.57;6.27;25.97
13873;2.86;-9.27;0.59;0.13;0.83;-0.10;-26.92;1.41;22.11
13882;2.91;-9.40;0.51;0.13;0.83;-0.10;-18.70;-3.70;16.96
13891;2.77;-9.54;0.53;0.13;0.83;-0.10;-9.42;-7.52;11.35
13900;2.48;-9.66;0.47;0.12;0.83;-0.11;-0.33;-9.39;6.76
13908;2.19;-9.75;0.41;0.12;0.83;-0.11;6.82;-8.35;3.57
13917;1.93;-9.68;0.29;0.12;0.83;-0.11;9.84;-5.96;2.93
13926;1.76;-9.56;0.10;0.12;0.82;-0.10;10.16;-1.72;2.77
13935;1.65;-9.37;-0.13;0.12;0.82;-0.10;8.65;4.45;2.48
13944;1.59;-9.30;-0.23;0.12;0.82;-0.10;7.60;10.74;2.34
13953;1.44;-9.23;-0.35;0.13;0.82;-0.11;6.24;15.56;2.02
13961;1.32;-9.24;-0.63;0.13;0.82;-0.11;5.37;18.80;0.40
13970;1.17;-9.23;-0.78;0.13;0.82;-0.09;5.53;20.20;-1.48
13979;0.87;-9.32;-0.85;0.12;0.82;-0.09;6.22;18.99;-4.03
13988;0.53;-9.41;-0.98;0.12;0.82;-0.09;6.07;16.56;-6.60
13997;0.34;-9.55;-0.89;0.12;0.83;-0.10;4.73;11.63;-7.61
14005;0.15;-9.69;-0.90;0.12;0.83;-0.10;2.69;7.31;-8.03
14014;-0.05;-9.81;-0.82;0.12;0.83;-0.10;0.52;3.22;-8.33
14023;-0.22;-9.98;-0.66;0.13;0.83;-0.09;-2.15;-1.13;-8.57
14032;-0.35;-10.18;-0.41;0.13;0.83;-0.09;-4.24;-3.58;-7.82
14041;-0.53;-10.34;-0.25;0.13;0.83;-0.09;-6.05;-4.82;-6.54
14049;-0.71;-10.51;-0.13;0.12;0.83;-0.10;-7.19;-4.37;-4.78
14058;-0.68;-10.56;0.01;0.12;0.83;-0.10;-7.54;-3.02;-2.83
14067;-0.54;-10.49;-0.02;0.12;0.83;-0.10;-7.04;-1.68;-1.19
14076;-0.37;-10.51;0.14;0.12;0.83;-0.09;-5.92;-0.88;-0.26
14085;-0.20;-10.36;0.18;0.12;0.83;-0.09;-3.74;-0.04;0.30
14093;-0.15;-10.35;0.18;0.12;0.83;-0.09;-1.42;0.82;0.15
14102;-0.14;-10.23;0.07;0.12;0.83;-0.09;1.37;0.94;0.51
14111;-0.12;-10.15;0.11;0.12;0.83;-0.09;2.61;0.50;0.29
14120;0.04;-10.09;0.13;0.12;0.83;-0.09;2.98;0.27;-0.25
14129;0.07;-10.04;0.03;0.13;0.83;-0.09;2.57;0.64;-0.56
14137;0.11;-10.00;-0.04;0.13;0.83;-0.09;2.38;1.09;-0.82
14146;0.22;-9.97;-0.07;0.13;0.83;-0.09;1.96;1.89;-0.58
14155;0.24;-9.99;-0.04;0.13;0.83;-0.09;1.35;1.94;-0.23
14164;0.38;-9.97;-0.08;0.13;0.83;-0.09;1.04;1.59;-0.03
14173;0.42;-9.95;-0.06;0.13;0.83;-0.09;2.24;1.47;-0.46
14181;0.54;-9.93;-0.10;0.12;0.83;-0.09;3.38;1.34;-0.87
14190;0.65;-9.92;-0.11;0.12;0.83;-0.09;4.35;1.53;-0.81
14199;0.66;-9.81;-0.09;0.12;0.83;-0.09;5.37;1.92;-1.11
14208;0.69;-9.78;-0.20;0.12;0.82;-0.08;5.92;2.22;-2.40
14217;0.79;-9.79;-0.38;0.12;0.82;-0.08;6.70;2.08;-2.78
14225;0.82;-9.70;-0.39;0.12;0.82;-0.08;6.01;2.62;-3.19
14234;0.82;-9.62;-0.52;0.13;0.82;-0.08;4.36;2.25;-4.97
14243;0.93;-9.64;-0.66;0.13;0.82;-0.08;2.77;1.12;-7.24
14252;1.07;-9.79;-0.70;0.13;0.82;-0.08;1.72;0.43;-8.22
14261;1.26;-9.82;-0.85;0.12;0.83;-0.08;1.45;-0.31;-8.97
14269;1.47;-9.84;-0.90;0.12;0.83;-0.08;1.32;-2.41;-10.25
14278;1.70;-10.11;-1.02;0.12;0.82;-0.08;3.16;-4.92;-11.82
14287;1.94;-10.04;-1.17;0.12;0.82;-0.08;5.07;-9.05;-13.44
14296;2.22;-9.98;-1.07;0.12;0.82;-0.08;7.14;-15.15;-14.82
14305;2.50;-10.09;-1.06;0.11;0.83;-0.09;8.40;-19.75;-16.43
14314;2.88;-9.91;-1.16;0.11;0.83;-0.09;7.34;-23.82;-18.95
14322;3.28;-9.99;-1.10;0.11;0.83;-0.09;6.55;-24.66;-19.56
14331;3.62;-10.09;-1.11;0.12;0.83;-0.09;3.28;-22.53;-20.00
14340;4.14;-10.10;-1.16;0.12;0.83;-0.09;-1.36;-20.83;-18.59
14349;4.56;-10.09;-1.16;0.12;0.83;-0.09;-6.49;-12.25;-17.16
14358;5.29;-10.06;-1.34;0.11;0.83;-0.09;-11.73;-6.81;-15.15
14367;5.90;-9.79;-1.15;0.11;0.83;-0.09;-20.60;0.11;-13.84
14376;6.64;-9.79;-1.03;0.11;0.83;-0.09;-33.57;11.86;-14.28
14384;7.17;-9.75;-1.14;0.11;0.82;-0.10;-42.60;25.05;-13.96
14393;7.56;-9.46;-1.04;0.11;0.82;-0.10;-52.55;39.85;-12.25
14402;7.76;-9.04;-0.87;0.11;0.82;-0.10;-66.90;60.51;-10.51
14411;8.12;-8.36;-0.93;0.10;0.83;-0.10;-82.58;81.28;-13.83
14420;7.93;-8.05;-0.84;0.10;0.83;-0.10;-102.18;104.62;-23.77
14429;7.55;-7.72;-0.64;0.10;0.83;-0.10;-124.53;126.83;-33.53
14438;6.91;-7.76;-0.53;0.11;0.84;-0.10;-144.19;142.61;-40.92
14446;6.30;-7.57;-0.12;0.11;0.84;-0.10;-160.96;157.94;-42.09
14455;6.14;-7.53;0.04;0.11;0.84;-0.10;-176.89;169.17;-32.17
14464;6.32;-7.80;0.02;0.11;0.82;-0.13;-192.17;175.80;-15.14
14473;6.90;-7.88;0.05;0.11;0.82;-0.13;-211.28;180.47;7.07
14481;8.42;-8.34;-0.46;0.11;0.82;-0.13;-235.45;190.65;47.88
14490;9.72;-7.96;-1.27;0.12;0.81;-0.15;-260.92;199.88;98.04
14499;11.11;-5.36;-3.00;0.12;0.81;-0.15;-282.62;209.72;161.14
14508;15.56;-0.61;-4.89;0.12;0.81;-0.15;-286.72;205.70;231.52
14517;19.15;6.06;-5.97;0.15;0.76;-0.17;-286.72;180.54;253.58
14526;19.60;13.05;-8.52;0.15;0.76;-0.17;-286.72;154.96;186.65
14535;18.17;19.47;-9.31;0.20;0.70;-0.23;-286.72;96.55;-1.92
14543;9.47;19.60;-8.25;0.20;0.70;-0.23;-286.72;-0.65;-169.65
14552;-5.81;19.60;-3.83;0.20;0.70;-0.23;-286.72;-8.05;-280.39
14561;-19.60;19.60;1.53;0.19;0.61;-0.33;-286.72;-12.05;-273.56
14570;-19.60;19.60;11.52;0.19;0.61;-0.33;-286.72;-54.85;-224.49
14579;-19.60;19.60;19.60;0.19;0.61;-0.33;-286.72;-111.68;-147.90
14588;-19.60;19.60;19.60;0.17;0.46;-0.41;-286.72;-180.91;-85.32
14597;-19.60;19.60;19.60;0.17;0.46;-0.41;-286.72;-242.99;-29.73
14606;-19.60;19.60;19.60;0.17;0.46;-0.41;-286.72;-286.72;-91.75
14614;-19.60;-19.60;19.60;0.12;0.25;-0.40;-286.72;-14.66;-265.51
14623;-1.49;-19.60;19.60;0.12;0.25;-0.40;-286.72;171.56;-228.62
14632;7.06;-19.60;19.60;0.12;0.25;-0.40;-164.10;214.60;-85.86
14641;-8.39;-18.51;19.60;0.18;0.16;-0.36;286.68;271.41;127.51
14650;-19.60;19.38;3.66;0.18;0.16;-0.36;286.68;171.43;286.68
14659;-19.60;19.60;-6.72;0.18;0.16;-0.36;286.68;29.09;194.67
14667;-6.75;19.60;-13.05;0.21;0.23;-0.39;286.68;-105.55;94.68
14676;7.19;19.60;-14.81;0.21;0.23;-0.39;59.07;-26.24;76.06
14685;10.62;19.60;-13.19;0.21;0.23;-0.39;-225.71;99.67;54.09
14694;4.96;19.16;-10.01;0.19;0.27;-0.40;-286.72;107.76;26.35
14703;0.74;13.51;-1.20;0.19;0.27;-0.40;-286.72;-2.23;-33.90
14712;0.30;6.74;8.29;0.19;0.27;-0.40;-210.55;-92.29;-62.18
14721;2.03;2.25;13.96;0.18;0.24;-0.39;-127.00;-82.90;-58.83
14730;1.20;0.41;17.59;0.18;0.24;-0.39;-76.31;-39.27;-44.41
14738;0.20;-1.52;17.62;0.18;0.24;-0.39;-57.85;16.94;-27.71
14747;-0.98;-2.43;15.43;0.17;0.23;-0.39;-22.67;64.08;-14.17
14756;-1.94;-1.52;13.01;0.17;0.23;-0.39;27.47;81.79;1.44
14765;-2.37;0.63;9.05;0.17;0.23;-0.38;88.39;71.15;10.41
14774;-2.09;3.15;7.05;0.18;0.23;-0.38;131.51;47.05;15.80
14782;-0.75;5.51;5.50;0.18;0.23;-0.38;140.21;18.04;16.65
14791;0.72;7.07;4.46;0.19;0.26;-0.38;120.02;1.85;13.40
14800;2.25;7.46;4.74;0.19;0.26;-0.38;80.49;-6.35;7.02
14809;3.51;6.81;5.31;0.19;0.26;-0.38;37.60;-8.26;0.93
14818;4.11;5.47;6.03;0.19;0.27;-0.40;-3.77;-7.03;-7.76
14826;4.14;3.57;7.04;0.19;0.27;-0.40;-29.84;-2.20;-13.90
14835;3.74;2.45;8.10;0.19;0.27;-0.40;-46.30;3.75;-16.59
14844;3.28;1.63;9.07;0.18;0.27;-0.38;-51.38;5.55;-16.26
14853;2.91;1.33;10.00;0.18;0.27;-0.38;-42.47;2.00;-15.28
14862;2.46;1.38;10.53;0.18;0.27;-0.38;-26.28;-2.98;-14.35
14870;2.27;1.64;10.91;0.18;0.27;-0.39;-8.44;-6.26;-14.84
14879;1.94;1.93;11.26;0.18;0.27;-0.39;6.69;-7.03;-15.28
14888;1.41;2.10;11.28;0.18;0.27;-0.39;13.92;-5.59;-15.05
14897;1.16;2.23;11.14;0.18;0.27;-0.39;15.61;-3.40;-15.02
14906;0.92;2.17;10.94;0.18;0.27;-0.39;12.55;-0.46;-14.77
14915;0.58;2.12;10.75;0.18;0.27;-0.39;6.85;2.30;-13.40
14923;0.41;2.23;10.75;0.18;0.27;-0.38;2.20;4.82;-11.94
14932;0.22;2.18;10.78;0.18;0.27;-0.38;-0.93;7.17;-11.33
14941;0.10;1.93;10.84;0.18;0.27;-0.38;-1.63;9.82;-10.53
14950;0.07;1.58;10.77;0.18;0.27;-0.39;2.93;12.42;-9.29
14959;-0.13;1.41;10.55;0.18;0.27;-0.39;11.98;14.57;-8.02
14967;-0.23;1.32;10.25;0.18;0.27;-0.39;23.91;13.19;-6.62
14976;-0.29;1.47;9.65;0.19;0.27;-0.39;33.56;11.48;-5.03
14985;-0.25;1.78;9.30;0.19;0.27;-0.39;37.83;10.63;-3.04
14994;0.02;1.99;8.66;0.19;0.27;-0.39;38.37;10.49;-0.83
15002;0.33;2.40;8.18;0.18;0.28;-0.38;37.91;11.22;-0.18
complete
