Time(ms);AccX(m/s^2);AccY(m/s^2);AccZ(m/s^2);MagX(gauss);MagY(gauss);MagZ(gauss);GyroX(dps);GyroY(dps);GyroZ(dps)
33;-2.66;-9.96;0.11;-0.16;0.89;-0.24;-7.21;-3.99;-0.49
42;-2.73;-10.00;0.14;-0.16;0.89;-0.24;-6.93;-4.69;0.00
50;-2.76;-9.91;0.00;-0.16;0.89;-0.24;-5.53;-6.72;1.33
59;-2.76;-9.72;0.05;-0.16;0.89;-0.24;-3.36;-8.82;2.24
68;-2.68;-9.73;0.11;-0.16;0.89;-0.24;-2.24;-9.24;2.87
77;-2.75;-9.68;0.33;-0.16;0.89;-0.24;-2.38;-8.40;2.87
85;-2.89;-9.55;0.26;-0.17;0.89;-0.24;-4.13;-6.58;2.10
94;-2.84;-9.54;0.23;-0.17;0.89;-0.24;-7.35;-4.90;1.12
103;-2.81;-9.57;0.21;-0.17;0.89;-0.24;-9.94;-3.01;0.00
112;-2.83;-9.58;0.40;-0.16;0.89;-0.24;-12.74;-1.05;-1.54
120;-2.88;-9.53;0.15;-0.16;0.89;-0.24;-14.07;0.42;-2.66
129;-2.79;-9.60;0.29;-0.16;0.89;-0.24;-14.35;0.42;-2.52
138;-2.87;-9.60;0.21;-0.16;0.88;-0.24;-12.53;-0.77;-1.89
147;-2.84;-9.66;0.26;-0.16;0.88;-0.24;-10.43;-2.45;-0.98
155;-2.76;-9.62;0.34;-0.16;0.88;-0.24;-7.14;-3.71;0.77
164;-2.68;-9.65;0.37;-0.17;0.88;-0.23;-3.85;-4.55;1.33
173;-2.68;-9.64;0.47;-0.17;0.88;-0.23;-3.50;-4.41;1.54
182;-2.64;-9.67;0.50;-0.17;1.03;-0.23;-4.48;-3.29;0.70
190;-2.66;-9.56;0.54;-0.17;0.89;-0.23;-6.93;-1.05;-0.28
199;-2.69;-9.58;0.54;-0.17;0.89;-0.23;-9.24;1.89;-1.33
208;-2.68;-9.57;0.46;-0.16;0.89;-0.23;-10.85;3.43;-2.45
217;-2.74;-9.60;0.38;-0.16;0.89;-0.23;-12.67;3.99;-3.29
225;-2.68;-9.53;0.46;-0.16;0.89;-0.23;-14.56;4.83;-4.62
234;-2.74;-9.56;0.41;-0.16;0.89;-0.24;-17.22;4.41;-5.18
243;-2.73;-9.59;0.46;-0.16;0.89;-0.24;-20.02;4.83;-6.16
252;-2.76;-9.68;0.52;-0.16;0.89;-0.24;-21.63;5.25;-7.56
260;-2.95;-9.66;0.55;-0.17;0.88;-0.24;-22.89;4.97;-8.54
269;-2.92;-9.67;0.79;-0.17;0.88;-0.24;-23.94;5.53;-8.61
278;-3.01;-9.68;0.87;-0.17;0.88;-0.24;-25.20;6.51;-9.38
287;-2.86;-9.60;0.99;-0.17;0.88;-0.26;-26.39;8.19;-10.36
295;-2.99;-9.56;1.18;-0.17;0.88;-0.26;-27.86;9.24;-11.41
304;-2.92;-9.65;1.06;-0.17;0.88;-0.26;-29.47;10.92;-12.88
313;-2.91;-9.50;1.16;-0.16;0.87;-0.24;-31.43;12.18;-14.21
322;-2.95;-9.66;1.26;-0.16;0.87;-0.24;-32.48;13.30;-15.12
330;-3.07;-9.67;1.24;-0.16;0.87;-0.24;-32.76;13.93;-15.40
339;-3.07;-9.69;1.16;-0.17;0.87;-0.25;-31.50;13.02;-15.05
348;-3.07;-9.68;1.40;-0.17;0.87;-0.25;-28.35;12.04;-14.28
357;-3.19;-9.50;1.31;-0.17;0.87;-0.25;-24.99;10.85;-13.30
365;-3.24;-9.47;1.38;-0.17;0.85;-0.26;-22.33;10.22;-12.39
374;-3.27;-9.52;1.31;-0.17;0.85;-0.26;-20.37;9.45;-12.11
383;-3.29;-9.45;1.26;-0.17;0.85;-0.26;-19.25;10.15;-11.90
392;-3.29;-9.32;1.30;-0.17;0.87;-0.27;-19.46;10.36;-12.04
400;-3.21;-9.38;1.20;-0.17;0.87;-0.27;-21.49;10.57;-13.23
409;-3.20;-9.35;1.04;-0.17;0.87;-0.27;-22.47;9.66;-14.77
418;-3.18;-9.30;1.16;-0.17;0.85;-0.28;-23.17;7.21;-15.61
427;-3.31;-9.38;1.37;-0.17;0.85;-0.28;-24.08;6.51;-17.08
435;-3.35;-9.37;1.49;-0.17;0.85;-0.28;-27.30;7.21;-19.18
444;-3.40;-9.47;1.65;-0.18;0.86;-0.28;-30.73;9.24;-20.09
453;-3.27;-9.43;1.64;-0.18;0.86;-0.28;-33.74;12.88;-20.86
462;-3.31;-9.34;1.75;-0.18;0.86;-0.28;-35.00;14.98;-20.79
470;-3.29;-9.35;1.73;-0.17;0.85;-0.29;-34.86;16.45;-20.65
479;-3.42;-9.29;1.65;-0.17;0.85;-0.29;-33.74;17.57;-19.67
488;-3.52;-9.15;1.62;-0.17;0.85;-0.29;-32.62;17.43;-19.81
497;-3.55;-9.15;1.56;-0.18;0.85;-0.29;-32.20;16.80;-19.67
505;-3.51;-9.14;1.50;-0.18;0.85;-0.29;-32.41;16.24;-20.16
514;-3.69;-9.15;1.53;-0.18;0.85;-0.29;-32.06;14.00;-20.65
523;-3.60;-9.17;1.51;-0.17;0.85;-0.30;-30.31;10.22;-20.02
532;-3.68;-9.07;1.46;-0.17;0.85;-0.30;-27.23;6.23;-19.95
540;-3.78;-9.00;1.50;-0.17;0.85;-0.30;-24.71;2.80;-19.74
549;-3.73;-8.89;1.82;-0.18;0.84;-0.30;-23.80;2.45;-20.65
558;-3.78;-8.84;2.02;-0.18;0.84;-0.30;-25.41;3.92;-22.61
567;-3.74;-8.82;2.12;-0.18;0.83;-0.31;-30.73;7.70;-24.99
575;-3.70;-8.83;2.12;-0.18;0.83;-0.31;-37.59;12.81;-27.93
584;-3.88;-8.84;2.09;-0.18;0.83;-0.31;-45.22;18.06;-30.59
593;-3.78;-8.95;1.97;-0.19;0.83;-0.31;-48.86;21.28;-31.29
602;-3.90;-9.04;1.87;-0.19;0.83;-0.31;-45.22;21.21;-29.26
610;-4.01;-9.15;1.68;-0.19;0.83;-0.31;-36.89;15.61;-24.92
619;-4.04;-9.12;1.76;-0.19;0.82;-0.32;-27.51;9.59;-20.72
628;-4.14;-9.15;1.72;-0.19;0.82;-0.32;-18.90;3.57;-16.31
637;-3.93;-9.07;2.01;-0.19;0.82;-0.32;-13.51;0.28;-14.42
645;-4.01;-8.87;2.29;-0.20;0.83;-0.31;-14.14;1.40;-14.98
654;-4.02;-8.92;2.25;-0.20;0.83;-0.31;-17.64;3.85;-17.01
663;-3.98;-8.94;2.26;-0.20;0.83;-0.31;-24.08;6.65;-20.51
672;-3.91;-8.88;2.35;-0.21;0.81;-0.33;-32.97;10.01;-24.29
680;-3.86;-8.85;2.46;-0.21;0.81;-0.33;-41.72;12.88;-28.91
689;-3.88;-9.02;2.55;-0.21;0.81;-0.33;-51.52;16.38;-31.99
698;-3.98;-9.22;2.46;-0.19;0.80;-0.34;-56.00;17.85;-32.34
707;-4.20;-9.26;2.38;-0.19;0.80;-0.34;-52.71;15.33;-29.68
715;-4.16;-9.26;2.35;-0.19;0.80;-0.34;-43.89;10.22;-26.25
724;-4.23;-9.30;2.35;-0.21;0.80;-0.34;-34.37;4.34;-22.54
733;-4.28;-9.28;2.70;-0.21;0.80;-0.34;-30.73;-0.07;-20.58
742;-4.26;-9.08;2.89;-0.21;0.80;-0.34;-32.90;-0.77;-22.61
750;-4.34;-8.94;3.26;-0.20;0.79;-0.35;-41.79;1.82;-26.53
759;-4.35;-8.92;3.55;-0.20;0.79;-0.35;-53.06;7.28;-32.20
768;-4.27;-8.99;3.52;-0.20;0.79;-0.35;-62.09;12.32;-37.03
777;-4.40;-8.99;3.50;-0.21;0.79;-0.36;-67.27;17.08;-38.22
785;-4.35;-8.98;3.29;-0.21;0.79;-0.36;-67.06;16.80;-37.03
794;-4.38;-8.88;3.16;-0.21;0.79;-0.36;-59.92;12.18;-33.32
803;-4.26;-8.79;3.47;-0.21;0.78;-0.36;-50.26;5.46;-29.61
812;-4.48;-8.63;3.60;-0.21;0.78;-0.36;-44.45;0.28;-26.60
820;-4.41;-8.38;3.82;-0.21;0.78;-0.36;-43.68;-1.40;-27.37
829;-4.45;-8.24;4.07;-0.20;0.76;-0.37;-47.04;-0.49;-29.33
838;-4.52;-8.13;4.06;-0.20;0.76;-0.37;-53.41;2.59;-32.76
847;-4.59;-7.98;4.15;-0.20;0.76;-0.37;-61.04;7.49;-37.52
856;-4.57;-7.89;4.42;-0.21;0.75;-0.37;-72.10;13.02;-42.14
864;-4.69;-7.67;4.70;-0.21;0.75;-0.37;-83.65;20.09;-48.30
873;-4.73;-7.75;4.50;-0.21;0.75;-0.37;-92.26;26.95;-52.64
882;-4.74;-7.81;4.08;-0.22;0.73;-0.38;-89.95;26.74;-50.47
891;-4.90;-7.70;3.83;-0.22;0.73;-0.38;-75.60;19.46;-44.17
899;-4.92;-7.62;4.09;-0.22;0.73;-0.38;-60.20;10.29;-36.89
908;-5.05;-7.38;4.25;-0.22;0.71;-0.41;-47.46;3.01;-29.54
917;-5.21;-7.11;4.57;-0.22;0.71;-0.41;-40.46;-0.35;-25.69
926;-5.05;-6.83;4.91;-0.22;0.71;-0.41;-39.83;1.19;-25.76
934;-5.13;-6.76;5.05;-0.22;0.70;-0.40;-44.59;6.30;-29.12
943;-5.15;-6.53;5.05;-0.22;0.70;-0.40;-52.01;13.51;-34.16
952;-5.20;-6.50;5.02;-0.23;0.69;-0.39;-61.60;20.79;-41.65
961;-5.27;-6.46;4.78;-0.23;0.69;-0.39;-89.46;28.14;-47.32
969;-5.08;-6.67;4.47;-0.23;0.69;-0.39;-77.07;28.98;-48.65
978;-5.20;-6.62;4.31;-0.23;0.68;-0.40;-73.92;24.01;-45.64
987;-5.20;-6.63;4.20;-0.23;0.68;-0.40;-66.85;17.57;-39.62
996;-5.28;-6.52;4.58;-0.23;0.68;-0.40;-57.26;10.71;-34.65
1004;-5.35;-6.26;4.74;-0.22;0.67;-0.42;-49.84;5.25;-32.20
1013;-5.51;-6.25;5.06;-0.22;0.67;-0.42;-48.23;3.71;-32.55
1022;-5.48;-5.98;5.38;-0.22;0.67;-0.42;-50.40;4.69;-35.42
1031;-5.69;-5.72;5.69;-0.22;0.65;-0.40;-55.86;10.85;-39.34
1039;-5.76;-5.61;5.87;-0.22;0.65;-0.40;-64.19;18.55;-45.50
1048;-5.74;-7.33;5.78;-0.22;0.65;-0.40;-70.00;24.08;-49.56
1057;-5.71;-5.56;5.60;-0.23;0.64;-0.42;-71.75;26.11;-52.01
1066;-5.69;-5.57;5.64;-0.23;0.64;-0.42;-71.47;26.39;-52.57
1074;-5.72;-5.64;5.55;-0.23;0.64;-0.42;-67.76;23.45;-50.19
1083;-5.70;-5.89;5.48;-0.22;0.62;-0.43;-61.60;17.85;-45.01
1092;-5.75;-5.86;5.52;-0.22;0.62;-0.43;-53.41;12.11;-38.57
1101;-5.76;-5.71;5.86;-0.22;0.62;-0.43;-46.34;8.61;-33.32
1109;-5.89;-5.55;6.14;-0.23;0.61;-0.43;-43.75;6.37;-30.45
1118;-5.89;-5.34;6.41;-0.23;0.61;-0.43;-45.01;7.42;-32.27
1127;-5.86;-5.28;6.61;-0.23;0.61;-0.43;-48.72;10.43;-36.33
1136;-5.87;-5.09;6.80;-0.23;0.60;-0.43;-56.14;14.91;-41.37
1144;-5.81;-5.00;6.88;-0.23;0.60;-0.43;-66.15;19.46;-46.41
1153;-5.70;-5.21;6.90;-0.23;0.60;-0.43;-70.91;22.05;-48.86
1162;-5.78;-5.19;6.91;-0.23;0.58;-0.44;-68.18;23.03;-48.37
1171;-5.86;-5.04;6.71;-0.23;0.58;-0.44;-62.23;22.40;-44.17
1179;-5.86;-5.04;6.76;-0.23;0.58;-0.44;-57.89;21.84;-41.02
1188;-5.91;-4.94;6.69;-0.22;0.57;-0.44;-54.32;21.84;-37.87
1197;-5.95;-4.82;6.52;-0.22;0.57;-0.44;-52.29;19.25;-34.86
1206;-5.92;-4.70;6.50;-0.22;0.57;-0.44;-51.66;16.10;-31.92
1214;-5.74;-4.61;6.71;-0.22;0.56;-0.45;-51.52;13.79;-30.59
1223;-5.76;-4.24;6.81;-0.22;0.56;-0.45;-52.50;14.49;-31.78
1232;-5.78;-4.15;6.92;-0.22;0.56;-0.45;-56.35;17.50;-36.26
1241;-5.68;-3.73;7.07;-0.22;0.54;-0.44;-63.07;22.12;-41.51
1250;-5.75;-3.60;7.14;-0.22;0.54;-0.44;-75.18;27.72;-48.23
1258;-5.55;-3.45;7.16;-0.22;0.54;-0.44;-85.05;32.48;-53.97
1267;-5.56;-3.45;6.95;-0.22;0.52;-0.46;-89.32;33.60;-57.33
1276;-5.65;-3.45;6.92;-0.22;0.52;-0.46;-90.30;34.02;-56.35
1285;-5.65;-3.68;6.81;-0.22;0.52;-0.46;-83.72;30.59;-52.71
1293;-5.84;-3.61;6.47;-0.20;0.50;-0.45;-71.26;22.33;-46.20
1302;-5.81;-3.50;6.58;-0.20;0.50;-0.45;-58.66;14.77;-38.85
1311;-5.96;-3.33;6.88;-0.20;0.49;-0.45;-50.82;9.24;-32.13
1320;-6.00;-3.23;7.09;-0.20;0.49;-0.45;-46.13;7.28;-29.68
1328;-5.90;-2.93;7.27;-0.20;0.49;-0.45;-46.97;7.98;-30.38
1337;-6.07;-2.74;7.54;-0.20;0.47;-0.45;-54.25;11.20;-33.04
1346;-6.06;-2.54;7.76;-0.20;0.47;-0.45;-64.89;15.12;-38.08
1355;-5.93;-2.20;7.87;-0.20;0.47;-0.45;-75.67;22.19;-45.22
1363;-5.73;-2.20;7.98;-0.20;0.46;-0.45;-83.86;28.28;-50.12
1372;-3.78;-2.28;7.75;-0.20;0.46;-0.45;-84.35;30.38;-50.47
1381;-5.61;-2.36;7.42;-0.20;0.46;-0.45;-73.57;27.23;-42.77
1390;-5.62;-2.38;7.21;-0.19;0.44;-0.47;-53.90;17.78;-33.04
1399;-5.76;-2.23;7.16;-0.19;0.44;-0.47;-35.00;7.63;-22.75
1407;-5.80;-2.20;7.52;-0.19;0.44;-0.47;-24.29;1.26;-14.00
1416;-5.92;-2.02;7.63;-0.19;0.42;-0.46;-23.73;-2.17;-9.80
1425;-5.76;-1.68;7.81;-0.19;0.42;-0.46;-30.17;-2.03;-9.94
1434;-5.72;-1.41;8.06;-0.19;0.42;-0.46;-37.94;1.47;-15.89
1442;-5.71;-1.26;8.26;-0.20;0.41;-0.45;-49.28;6.86;-24.15
1451;-5.60;-1.03;8.33;-0.20;0.41;-0.45;-63.14;15.68;-32.69
1460;-5.79;-0.88;8.36;-0.20;0.41;-0.45;-82.18;24.08;-42.91
1469;-5.70;-0.85;8.18;-0.18;0.41;-0.45;-99.47;30.94;-52.92
1477;-5.25;-1.02;7.62;-0.18;0.41;-0.45;-109.34;32.76;-56.28
1486;-5.21;-0.83;7.23;-0.18;0.41;-0.45;-101.15;27.58;-52.15
1495;-5.28;-0.69;7.31;-0.17;0.37;-0.45;-84.49;19.88;-46.13
1504;-5.41;-0.59;7.42;-0.17;0.37;-0.45;-71.68;11.97;-42.35
1512;-5.81;-0.50;7.85;-0.17;0.37;-0.45;-63.98;6.65;-39.27
1521;-5.61;-0.51;7.88;-0.16;0.36;-0.46;-63.84;3.78;-35.91
1530;-5.67;-0.34;7.85;-0.16;0.36;-0.46;-62.23;0.70;-34.09
1539;-5.72;-0.16;7.89;-0.16;0.36;-0.46;-56.98;-1.75;-33.18
1547;-5.69;-1.82;8.17;-0.16;0.35;-0.44;-53.55;-2.10;-34.30
1556;-5.75;0.06;8.61;-0.16;0.35;-0.44;-54.39;1.40;-37.10
1565;-5.81;0.37;8.43;-0.16;0.35;-0.44;-56.21;6.93;-38.85
1573;-5.67;0.57;8.41;-0.17;0.34;-0.45;-55.37;10.78;-40.53
1582;-5.77;0.51;8.10;-0.17;0.34;-0.45;-53.83;12.81;-41.23
1591;-5.60;0.55;7.93;-0.17;0.34;-0.45;-50.68;11.90;-39.76
1600;-5.58;0.42;7.65;-0.15;0.32;-0.43;-46.13;9.87;-37.73
1609;-5.68;0.39;7.59;-0.15;0.32;-0.43;-45.08;8.26;-36.40
1617;-5.42;0.28;7.74;-0.15;0.32;-0.43;-43.54;5.32;-33.95
1626;-5.41;0.44;7.80;-0.16;0.32;-0.44;-40.74;2.80;-31.29
1635;-5.40;0.60;7.95;-0.16;0.32;-0.44;-39.62;1.26;-30.45
1644;-5.33;0.79;8.20;-0.16;0.32;-0.44;-39.27;1.75;-31.01
1652;-5.51;0.73;7.97;-0.14;0.31;-0.44;-40.04;4.90;-31.01
1661;-5.68;0.86;7.77;-0.14;0.31;-0.44;-40.74;6.23;-32.20
1670;-5.56;0.94;7.49;-0.16;0.29;-0.43;-42.14;5.18;-34.93
1679;-5.24;0.87;7.52;-0.16;0.29;-0.43;-41.51;4.06;-38.85
1687;-5.38;0.91;7.57;-0.16;0.29;-0.43;-43.26;4.90;-39.27
1696;-5.31;1.25;7.63;-0.14;0.28;-0.41;-44.87;4.41;-40.32
1705;-5.35;1.11;7.54;-0.14;0.28;-0.41;-48.79;3.50;-40.46
1714;-5.29;1.02;7.55;-0.14;0.28;-0.41;-49.91;0.21;-37.03
1722;-5.18;1.29;7.44;-0.14;0.27;-0.42;-42.56;-3.99;-33.18
1731;-5.20;1.39;7.59;-0.14;0.27;-0.42;-34.02;-9.24;-28.00
1740;-5.13;1.26;7.50;-0.14;0.27;-0.42;-25.76;-13.30;-24.08
1749;-5.25;1.49;7.55;-0.14;0.25;-0.41;-18.97;-16.59;-19.53
1757;-5.30;1.68;7.54;-0.14;0.25;-0.41;-14.70;-19.11;-16.17
1766;-5.54;1.99;7.35;-0.14;0.25;-0.41;-13.51;-22.75;-15.12
1775;-5.54;2.03;7.49;-0.14;0.26;-0.41;-15.40;-26.53;-16.87
1784;-5.52;2.13;7.61;-0.14;0.26;-0.41;-19.46;-29.19;-20.30
1792;-5.45;2.16;7.70;-0.14;0.26;-0.41;-22.05;-29.33;-23.31
1801;-5.26;2.01;7.65;-0.14;0.25;-0.39;-23.10;-27.65;-25.69
1810;-5.33;2.02;7.49;-0.14;0.25;-0.39;-23.87;-26.81;-27.16
1819;-5.21;1.79;7.25;-0.14;0.25;-0.39;-24.22;-28.98;-26.88
1827;-5.20;1.79;7.19;-0.15;0.25;-0.41;-23.59;-28.84;-24.85
1836;-5.39;1.62;6.73;-0.15;0.25;-0.41;-24.71;-28.49;-22.96
1845;-5.61;1.87;7.10;-0.15;0.25;-0.41;-20.65;-28.70;-18.76
1854;-5.92;1.97;7.35;-0.15;0.24;-0.41;-12.39;-32.62;-15.26
1863;-6.01;2.23;7.70;-0.15;0.24;-0.41;-6.16;-32.97;-11.48
1871;-5.97;2.36;7.81;-0.15;0.24;-0.41;-3.01;-29.19;-9.38
1880;-5.89;2.51;7.76;-0.16;0.24;-0.42;-0.98;-24.01;-9.52
1889;-5.73;2.70;7.55;-0.16;0.24;-0.42;-0.14;-18.83;-11.69
1898;-5.64;3.05;7.37;-0.16;0.24;-0.42;-2.52;-15.33;-15.33
1906;-6.55;5.56;6.40;-0.16;0.24;-0.42;-10.71;-16.10;-26.11
1915;-6.13;2.67;8.10;-0.16;0.24;-0.42;-25.06;-19.74;-43.89
1924;-5.46;2.69;7.43;-0.16;0.24;-0.42;-47.81;-14.77;-53.55
1933;-5.74;2.74;6.78;-0.15;0.24;-0.41;-43.26;-8.61;-51.03
1941;-6.05;1.95;6.52;-0.15;0.24;-0.41;-41.30;-10.08;-44.66
1950;-6.04;1.84;6.43;-0.15;0.24;-0.41;-29.12;-17.36;-37.03
1959;-6.30;2.46;6.70;-0.15;0.22;-0.39;-13.16;-23.59;-26.25
1968;-6.30;2.05;7.46;-0.15;0.22;-0.39;-3.71;-25.27;-17.22
1976;-6.35;2.21;7.58;-0.15;0.22;-0.39;5.88;-23.66;-9.03
1985;-6.35;2.70;7.57;-0.15;0.22;-0.39;13.65;-19.67;-5.18
1994;-6.27;2.76;7.54;-0.15;0.22;-0.39;14.14;-15.05;-4.90
2003;-6.07;2.97;7.57;-0.15;0.22;-0.39;11.55;-9.73;-7.28
2011;-6.01;2.80;7.27;-0.16;0.22;-0.40;5.18;-5.11;-13.44
2020;-5.93;2.82;6.73;-0.16;0.22;-0.40;-4.41;-3.01;-20.02
2029;-5.84;2.63;6.49;-0.16;0.22;-0.40;-12.67;-3.36;-24.71
2037;-5.60;2.57;6.32;-0.16;0.22;-0.40;-16.52;-6.09;-24.43
2046;-5.70;2.77;6.72;-0.16;0.22;-0.40;-16.24;-9.94;-22.68
2055;-5.77;2.56;7.07;-0.16;0.22;-0.39;-14.56;-11.76;-19.32
2064;-5.86;2.54;7.21;-0.16;0.22;-0.39;-9.17;-11.90;-14.42
2072;-5.99;2.64;7.22;-0.16;0.22;-0.39;-2.87;-11.13;-9.59
2081;-6.10;2.69;9.09;-0.16;0.23;-0.38;4.90;-9.66;-5.18
2090;-5.86;2.55;7.23;-0.16;0.23;-0.38;8.47;-7.14;-3.08
2099;-5.92;2.51;7.18;-0.16;0.23;-0.38;7.35;-4.34;-2.59
2107;-5.89;2.49;6.98;-0.16;0.22;-0.38;2.73;-0.98;-2.59
2116;-5.77;2.45;6.60;-0.16;0.22;-0.38;-3.36;0.28;-3.71
2125;-5.94;2.39;6.61;-0.16;0.22;-0.38;-9.31;-0.28;-4.69
2134;-5.98;2.47;6.67;-0.16;0.22;-0.38;-13.02;-3.01;-4.83
2142;-5.90;2.60;6.95;-0.16;0.22;-0.38;-12.60;-6.16;-4.13
2151;-5.89;2.63;7.17;-0.16;0.22;-0.38;-10.64;-7.56;-1.89
2160;-5.96;2.79;7.26;-0.16;0.21;-0.39;-6.09;-7.14;1.89
2168;-5.99;2.83;7.61;-0.16;0.21;-0.39;-0.56;-6.65;4.76
2177;-5.66;2.91;7.59;-0.16;0.21;-0.39;4.34;-5.04;7.63
2186;-5.81;2.95;7.63;-0.17;0.22;-0.39;9.24;-2.31;9.03
2195;-6.03;2.99;7.49;-0.17;0.22;-0.39;9.03;-0.21;8.75
2203;-6.00;3.07;7.29;-0.17;0.22;-0.39;7.42;0.63;6.65
2212;-5.95;3.07;7.17;-0.17;0.22;-0.38;5.67;-0.56;3.08
2221;-5.99;3.02;7.14;-0.17;0.22;-0.38;1.96;-1.05;-0.70
2230;-5.81;2.68;7.04;-0.17;0.22;-0.38;-2.66;-2.24;-2.24
2238;-5.83;2.62;7.10;-0.17;0.23;-0.39;-3.92;-3.36;-1.96
2247;-5.83;2.56;7.12;-0.17;0.23;-0.39;-3.50;-4.62;17.57
2256;-5.98;2.51;7.30;-0.17;0.23;-0.39;-2.38;-5.39;2.94
2265;-5.98;2.70;7.34;-0.17;0.22;-0.40;0.70;-5.39;6.23
2273;-5.97;3.04;7.59;-0.17;0.22;-0.40;5.32;-4.06;10.50
2282;-6.20;3.17;7.47;-0.17;0.22;-0.40;9.59;-2.31;11.48
2291;-6.03;3.45;7.34;-0.17;0.22;-0.40;10.50;-1.26;11.13
2299;-6.11;3.50;7.31;-0.17;0.22;-0.40;11.83;0.07;8.40
2308;-6.13;3.40;7.36;-0.17;0.22;-0.40;9.80;1.12;3.50
2317;-6.07;3.35;7.19;-0.17;0.22;-0.40;4.06;0.28;-0.70
2326;-6.20;3.08;7.16;-0.17;0.22;-0.40;0.77;-0.56;-2.52
2334;-6.17;2.73;7.21;-0.17;0.22;-0.40;-1.96;-1.47;-3.36
2343;-6.01;2.62;7.37;-0.17;0.23;-0.40;-3.92;-1.54;-1.12
2352;-6.12;2.68;7.39;-0.17;0.23;-0.40;-1.54;-1.75;1.96
2361;-6.04;2.76;7.49;-0.17;0.23;-0.40;4.06;-0.98;5.39
2369;-6.12;2.98;7.51;-0.16;0.23;-0.41;7.21;1.12;7.35
2378;-6.09;3.12;7.45;-0.16;0.23;-0.41;7.84;3.22;7.07
2387;-6.01;3.21;7.32;-0.16;0.23;-0.41;7.77;4.55;4.76
2396;-6.03;2.96;7.24;-0.17;0.23;-0.41;4.83;4.69;1.82
2404;-5.88;2.63;7.08;-0.17;0.23;-0.41;0.42;4.97;-1.19
2413;-6.02;2.63;7.11;-0.17;0.23;-0.41;-3.78;3.85;-3.29
2422;-6.06;2.30;7.24;-0.16;0.23;-0.39;-8.19;4.55;-3.92
2431;-5.97;2.31;7.19;-0.16;0.23;-0.39;-9.73;5.04;-2.87
2439;-5.94;2.38;7.14;-0.16;0.23;-0.39;-7.00;5.95;2.24
2448;-5.98;2.49;7.14;-0.16;0.23;-0.39;-1.40;6.16;6.72
2457;-5.72;2.91;7.09;-0.16;0.23;-0.39;7.21;5.67;12.32
2466;-5.76;3.15;7.10;-0.17;0.23;-0.39;15.05;5.67;15.19
2474;-5.89;3.24;7.22;-0.17;0.23;-0.39;17.36;6.79;13.86
2483;-5.84;3.18;7.16;-0.17;0.23;-0.39;14.28;6.51;11.20
2492;-5.92;2.98;7.18;-0.15;0.23;-0.38;10.43;7.35;7.63
2500;-5.92;2.66;7.24;-0.15;0.23;-0.38;7.21;7.98;4.90
2509;-6.09;2.25;7.31;-0.15;0.23;-0.38;5.11;8.26;4.34
2518;-6.18;2.04;7.32;-0.16;0.23;-0.39;5.88;8.82;5.18
2527;-6.31;1.79;7.52;-0.16;0.23;-0.39;6.58;9.94;8.19
2535;-6.44;1.55;7.52;-0.16;0.23;-0.39;7.63;11.41;11.83
2544;-6.49;1.37;7.54;-0.16;0.24;-0.39;8.40;12.81;15.75
2553;-6.40;1.34;7.59;-0.16;0.24;-0.39;7.49;12.88;23.17
2562;-6.29;1.64;7.48;-0.16;0.24;-0.39;12.88;12.67;30.66
2570;-6.30;1.84;7.52;-0.15;0.23;-0.40;20.02;10.08;37.59
2579;-6.08;2.35;7.49;-0.15;0.23;-0.40;35.56;7.63;48.65
2588;-5.86;2.77;7.45;-0.15;0.23;-0.40;56.14;2.52;57.54
2596;-5.83;2.97;7.54;-0.17;0.24;-0.41;78.89;-1.89;62.02
2605;-5.86;2.84;7.42;-0.17;0.24;-0.41;90.72;-3.85;60.27
2614;-5.99;3.04;7.53;-0.17;0.24;-0.41;91.49;-2.45;52.71
2623;-6.16;2.77;7.58;-0.17;0.26;-0.43;78.12;0.63;40.88
2631;-6.25;2.14;7.39;-0.17;0.26;-0.43;52.71;3.78;33.39
2640;-6.16;1.47;7.28;-0.17;0.26;-0.43;27.09;8.12;29.05
2649;-6.25;1.26;7.03;-0.17;0.27;-0.43;12.18;10.15;25.41
2658;-6.34;0.90;7.01;-0.17;0.27;-0.43;4.62;7.84;25.62
2666;-6.17;1.06;7.11;-0.17;0.27;-0.43;8.33;3.43;32.41
2675;-6.11;1.20;7.39;-0.16;0.28;-0.42;26.39;-1.75;46.20
2684;-6.28;1.45;7.61;-0.16;0.28;-0.42;50.47;-7.28;59.92
2692;-6.37;1.72;8.10;-0.16;0.28;-0.42;74.06;-12.46;70.35
2701;-6.40;1.97;8.31;-0.17;0.29;-0.43;90.72;-11.97;73.22
2710;-6.53;1.88;8.32;-0.17;0.29;-0.43;94.08;-6.65;66.99
2719;-6.56;1.33;8.12;-0.17;0.29;-0.43;83.86;0.28;56.56
2727;-6.71;0.75;7.67;-0.19;0.32;-0.43;68.67;8.19;42.70
2736;-6.67;0.02;7.35;-0.19;0.32;-0.43;49.49;15.19;32.55
2745;-6.20;-0.24;6.75;-0.19;0.32;-0.43;31.71;15.40;32.27
2754;-5.69;-0.14;6.35;-0.18;0.32;-0.44;30.45;11.90;37.45
2762;-5.49;0.41;6.33;-0.18;0.32;-0.44;39.20;5.39;46.97
2771;-5.71;0.75;6.55;-0.18;0.32;-0.44;50.82;-5.04;52.01
2780;-5.72;0.95;7.15;-0.19;0.33;-0.44;60.06;-13.02;52.78
2789;-5.89;0.87;7.68;-0.19;0.33;-0.44;62.86;-15.82;51.66
2797;-6.17;0.68;8.00;-0.19;0.33;-0.44;61.18;-15.47;46.90
2806;-6.51;0.15;8.23;-0.19;0.35;-0.45;59.36;-9.45;42.35
2815;-6.88;-0.38;8.26;-0.19;0.35;-0.45;52.71;-2.24;37.45
2824;-6.92;-1.16;8.30;-0.19;0.35;-0.45;45.08;3.85;35.49
2832;-6.30;-1.27;7.68;-0.19;0.36;-0.44;41.65;5.88;43.12
2841;-6.04;-1.18;7.18;-0.19;0.36;-0.44;51.52;7.35;53.20
2850;-5.98;-1.00;7.16;-0.19;0.38;-0.45;68.81;2.45;61.95
2858;-5.98;-0.60;6.91;-0.19;0.38;-0.45;80.15;-3.85;66.22
2867;-6.05;-0.53;7.09;-0.19;0.38;-0.45;82.95;-7.56;64.89
2876;-6.01;-0.83;7.13;-0.19;0.40;-0.45;76.51;-7.91;57.75
2885;-6.07;-1.19;7.31;-0.19;0.40;-0.45;62.86;-6.86;51.03
2893;-6.09;-1.35;7.09;-0.19;0.40;-0.45;49.28;-6.37;45.78
2902;-6.22;-1.74;7.15;-0.20;0.41;-0.45;44.31;-5.95;41.16
2911;-6.40;-2.18;7.11;-0.20;0.41;-0.45;43.26;-5.25;37.94
2920;-6.43;-2.53;7.25;-0.20;0.41;-0.45;42.49;-4.55;37.94
2928;-6.25;-2.69;7.21;-0.19;0.43;-0.46;42.84;-3.85;42.42
2937;-5.94;-2.58;7.04;-0.19;0.43;-0.46;46.34;-5.11;49.98
2946;-5.64;-2.43;6.70;-0.19;0.43;-0.46;54.67;-8.47;56.42
2955;-5.49;-2.02;6.67;-0.20;0.43;-0.46;63.77;-14.28;60.97
2963;-5.37;-1.64;6.65;-0.20;0.43;-0.46;72.10;-21.07;61.67
2972;-5.51;-1.52;6.90;-0.20;0.43;-0.46;74.13;-25.27;57.96
2981;-5.46;-1.73;7.29;-0.21;0.46;-0.45;69.58;-23.24;49.07
2990;-5.66;-2.03;7.33;-0.21;0.46;-0.45;58.87;-16.31;39.90
2998;-5.83;-2.48;7.21;-0.21;0.46;-0.45;43.05;-7.56;31.01
3007;-5.84;-2.92;7.03;-0.20;0.47;-0.46;30.66;-1.40;24.22
3016;-5.92;-3.68;6.73;-0.20;0.47;-0.46;25.76;1.54;22.26
3025;-5.82;-3.92;6.14;-0.20;0.47;-0.46;29.05;-2.31;29.33
3033;-5.49;-3.98;5.96;-0.20;0.48;-0.45;40.67;-15.68;43.05
3042;-5.13;-3.60;5.81;-0.20;0.48;-0.45;59.43;-29.40;58.66
3051;-7.31;-3.05;6.43;-0.20;0.48;-0.45;73.15;-37.80;64.89
3060;-5.95;-2.77;6.96;-0.21;0.50;-0.45;75.67;-41.86;60.48
3068;-5.78;-2.72;7.45;-0.21;0.50;-0.45;66.01;-35.56;49.35
3077;-6.02;-2.92;7.55;-0.21;0.50;-0.45;47.18;-21.98;37.17
3086;-5.97;-3.33;7.47;-0.22;0.52;-0.44;30.45;-8.19;26.39
3095;-6.30;-3.88;6.93;-0.22;0.52;-0.44;22.40;-1.19;19.81
3103;-6.13;-4.24;6.70;-0.22;0.52;-0.44;20.72;1.61;18.06
3112;-6.04;-4.69;6.63;-0.22;0.52;-0.46;23.38;0.56;20.93
3121;-5.98;-4.81;6.39;-0.22;0.52;-0.46;29.89;-5.04;29.33
3130;-6.12;-4.85;6.39;-0.22;0.52;-0.46;42.00;-13.86;40.25
3138;-5.84;-4.50;6.57;-0.22;0.52;-0.44;52.85;-22.26;48.72
3147;-5.98;-4.36;6.78;-0.22;0.52;-0.44;59.92;-23.87;53.55
3156;-6.14;-4.20;6.86;-0.22;0.52;-0.44;60.48;-23.52;52.57
3165;-6.17;-4.03;6.76;-0.22;0.55;-0.45;57.75;-20.02;49.00
3173;-5.98;-4.18;6.64;-0.22;0.55;-0.45;52.29;-16.59;44.17
3182;-6.06;-4.41;6.58;-0.22;0.55;-0.45;42.63;-13.72;38.99
3191;-6.07;-4.48;6.16;-0.23;0.56;-0.44;37.17;-11.90;34.65
3200;-6.00;-4.94;6.07;-0.23;0.56;-0.44;33.32;-10.43;32.27
3208;-5.92;-5.35;5.97;-0.23;0.56;-0.44;33.25;-11.97;32.41
3217;-5.94;-5.45;6.04;-0.22;0.56;-0.44;53.69;-15.40;37.80
3226;-5.92;-5.62;6.22;-0.22;0.56;-0.44;41.09;-20.16;45.99
3235;-5.98;-5.39;6.10;-0.24;0.57;-0.44;50.82;-24.43;71.61
3243;-6.20;-5.16;6.20;-0.24;0.57;-0.44;61.53;-27.30;60.20
3252;-6.14;-4.95;6.35;-0.24;0.57;-0.44;68.88;-27.37;61.39
3261;-6.18;-4.86;6.23;-0.23;0.59;-0.43;68.74;-24.64;58.59
3270;-6.18;-4.88;5.97;-0.23;0.59;-0.43;65.87;-22.75;53.48
3278;-6.01;-5.13;5.99;-0.23;0.59;-0.43;61.39;-20.09;47.95
3287;-5.73;-5.50;5.66;-0.22;0.62;-0.43;55.51;-17.01;45.22
3296;-5.84;-5.76;5.37;-0.22;0.62;-0.43;53.13;-14.21;45.36
3305;-5.76;-6.00;5.18;-0.22;0.62;-0.43;54.88;-16.80;47.25
3313;-5.69;-6.39;4.92;-0.22;0.62;-0.43;59.36;-20.65;51.17
3322;-5.64;-6.62;4.95;-0.22;0.62;-0.43;64.54;-26.25;56.56
3331;-5.75;-6.83;4.87;-0.22;0.62;-0.43;70.49;-30.45;62.23
3340;-5.68;-6.84;4.92;-0.23;0.65;-0.42;75.46;-34.72;68.11
3348;-5.81;-6.52;5.18;-0.23;0.65;-0.42;76.65;-36.82;68.18
3357;-5.65;-6.46;5.46;-0.23;0.65;-0.42;71.96;-33.95;63.77
3366;-5.55;-6.50;5.71;-0.23;0.66;-0.40;63.07;-26.25;57.47
3375;-5.36;-6.58;5.74;-0.23;0.66;-0.40;54.11;-18.97;51.45
3383;-5.24;-6.74;5.55;-0.23;0.66;-0.40;46.27;-13.79;47.11
3392;-5.14;-6.90;5.29;-0.23;0.68;-0.41;44.31;-12.95;47.39
3401;-5.08;-6.97;5.15;-0.23;0.68;-0.41;50.89;-18.27;50.26
3410;-5.14;-7.08;5.03;-0.23;0.68;-0.41;58.66;-24.01;53.41
3418;-5.36;-7.15;5.10;-0.23;0.68;-0.40;66.57;-28.35;57.54
3427;-5.36;-7.35;4.94;-0.23;0.68;-0.40;70.70;-31.57;63.14
3436;-5.35;-7.35;4.94;-0.23;0.68;-0.40;72.94;-31.01;66.22
3445;-5.42;-7.23;4.90;-0.23;0.70;-0.39;73.92;-28.21;65.73
3453;-5.30;-7.26;4.78;-0.23;0.70;-0.39;73.57;-24.64;62.51
3462;-5.13;-7.37;4.82;-0.23;0.70;-0.39;69.58;-21.14;57.68
3471;-4.98;-7.58;4.67;-0.23;0.73;-0.39;64.68;-17.29;54.25
3480;-4.88;-7.64;4.53;-0.23;0.73;-0.39;61.81;-16.24;52.15
3488;-4.69;-7.77;4.51;-0.23;0.73;-0.39;58.80;-15.89;50.33
3497;-4.78;-7.90;4.39;-0.22;0.74;-0.37;56.70;-15.26;49.14
3506;-4.90;-7.95;4.21;-0.22;0.74;-0.37;57.54;-15.96;50.05
3515;-4.83;-8.15;4.03;-0.22;0.74;-0.37;61.18;-17.08;52.43
3523;-4.87;-8.13;4.03;-0.22;0.75;-0.37;65.80;-17.85;55.23
3532;-4.83;-8.15;4.06;-0.22;0.75;-0.37;69.58;-19.39;56.14
3541;-4.66;-8.22;4.10;-0.22;0.75;-0.37;70.91;-18.27;57.33
3550;-4.65;-8.35;3.86;-0.22;0.76;-0.36;70.42;-16.80;57.61
3558;-4.71;-8.35;3.73;-0.22;0.76;-0.36;71.19;-15.26;58.80
3567;-4.75;-8.31;3.47;-0.22;0.76;-0.36;70.98;-15.96;59.29
3576;-4.51;-8.30;3.51;-0.21;0.79;-0.35;70.42;-17.64;57.19
3585;-4.13;-8.28;3.57;-0.21;0.79;-0.35;66.92;-16.10;52.99
3594;-4.01;-8.31;3.47;-0.21;0.79;-0.34;59.99;-12.32;48.30
3602;-3.92;-8.50;3.27;-0.20;0.79;-0.34;51.10;-7.98;44.17
3611;-3.84;-8.57;3.13;-0.20;0.79;-0.34;43.26;-4.69;42.42
3620;-4.08;-8.60;2.99;-0.20;0.80;-0.32;38.64;-3.71;41.02
3629;-3.96;-8.75;2.82;-0.20;0.80;-0.32;38.50;-3.64;39.06
3637;-3.96;-9.08;2.60;-0.20;0.80;-0.32;40.04;-3.99;39.41
3646;-3.94;-9.19;2.45;-0.19;0.81;-0.32;46.48;-6.37;41.93
3655;-3.83;-9.21;2.15;-0.19;0.81;-0.32;54.32;-9.66;44.10
3663;-3.75;-9.12;2.12;-0.19;0.81;-0.32;59.78;-14.63;45.71
3672;-3.74;-9.02;2.12;-0.20;0.82;-0.31;62.86;-19.67;44.52
3681;-3.52;-9.06;1.90;-0.20;0.82;-0.31;60.76;-21.63;40.67
3690;-3.63;-8.99;1.90;-0.20;0.82;-0.31;53.27;-20.58;36.82
3698;-3.62;-8.96;1.99;-0.19;0.83;-0.30;45.01;-19.25;32.20
3707;-3.55;-8.95;2.07;-0.19;0.83;-0.30;37.24;-18.76;27.30
3716;-3.52;-9.10;2.03;-0.19;0.83;-0.30;32.48;-17.36;22.82
3725;-3.33;-9.35;1.97;-0.20;0.83;-0.30;27.93;-14.42;21.21
3734;-3.37;-9.35;1.92;-0.20;0.83;-0.30;27.44;-12.25;22.54
3742;-3.28;-9.34;2.16;-0.20;0.83;-0.30;27.58;-8.40;23.52
3751;-3.32;-9.17;1.89;-0.19;0.84;-0.30;27.09;-6.37;23.66
3760;-3.21;-9.32;1.56;-0.19;0.84;-0.30;26.88;-5.53;23.45
3769;-3.09;-9.44;1.20;-0.19;0.84;-0.30;32.34;-8.75;25.76
3777;-2.96;-9.27;0.90;-0.18;0.84;-0.30;44.38;-17.29;29.54
3786;-3.01;-9.24;0.90;-0.18;0.84;-0.30;54.60;-24.15;31.57
3795;-2.98;-9.04;1.20;-0.18;0.84;-0.30;56.42;-27.72;28.00
3804;-2.89;-8.96;1.41;-0.18;0.86;-0.29;48.86;-25.27;22.05
3812;-2.92;-9.04;1.36;-0.18;0.86;-0.29;38.50;-20.02;14.63
3821;-2.97;-9.31;1.33;-0.18;0.86;-0.29;28.14;-13.72;8.54
3830;-2.89;-9.47;1.01;-0.18;0.85;-0.28;20.23;-10.92;7.07
3839;-3.08;-9.58;0.90;-0.18;0.85;-0.28;20.51;-12.39;8.68
3848;-3.07;-9.74;1.06;-0.18;0.85;-0.28;26.11;-14.77;12.32
3856;-3.04;-9.66;0.91;-0.18;0.86;-0.27;30.94;-18.34;13.79
3865;-3.07;-9.70;1.08;-0.18;0.86;-0.27;31.57;-19.18;14.07
3874;-3.12;-9.83;0.90;-0.18;0.86;-0.27;28.07;-17.64;11.97
3883;-3.23;-9.68;0.95;-0.18;0.86;-0.25;24.15;-16.87;9.66
3891;-3.14;-9.68;0.84;-0.18;0.86;-0.25;21.28;-17.50;8.26
3900;-3.17;-9.60;0.89;-0.18;0.86;-0.25;22.19;-19.60;5.88
3909;-3.24;-9.48;0.84;-0.19;0.87;-0.27;24.15;-20.37;3.36
3918;-3.11;-9.64;0.78;-0.19;0.87;-0.27;26.04;-19.81;0.35
3926;-3.09;-9.84;0.78;-0.19;0.87;-0.27;26.53;-0.28;-2.17
3935;-3.10;-10.01;0.77;-0.18;0.88;-0.26;21.77;-14.63;-2.10
3944;-3.11;-10.40;0.53;-0.18;0.88;-0.26;15.82;-11.76;0.49
3953;-3.21;-10.37;0.24;-0.18;0.88;-0.26;13.93;-13.37;4.27
3961;-3.16;-10.19;0.30;-0.19;0.88;-0.25;14.28;-16.17;7.77
3970;-3.01;-10.15;0.19;-0.19;0.88;-0.25;15.61;-19.53;9.52
3979;-2.91;-9.93;0.34;-0.19;0.89;-0.26;20.23;-20.79;10.15
3988;-2.99;-9.79;0.67;-0.19;0.89;-0.26;20.72;-19.60;10.71
3996;-2.91;-9.74;0.73;-0.19;0.89;-0.26;17.71;-17.15;8.40
4005;-2.79;-9.68;0.55;-0.19;0.88;-0.25;15.12;-13.79;5.32
4014;-2.79;-9.76;0.50;-0.19;0.88;-0.25;13.72;-11.41;4.06
4023;-2.99;-9.77;0.45;-0.19;0.88;-0.25;12.25;-8.82;2.87
4031;-2.84;-9.83;0.48;-0.18;0.88;-0.24;9.59;-5.95;2.80
4040;-2.84;-9.58;0.48;-0.18;0.88;-0.24;8.40;-3.36;2.87
4049;-2.71;-9.52;0.14;-0.18;0.88;-0.24;6.44;-2.87;3.01
4058;-2.79;-9.53;0.26;-0.18;0.89;-0.23;4.97;-2.45;3.64
4066;-2.69;-9.56;0.23;-0.18;0.89;-0.23;4.20;-2.45;3.92
4075;-2.84;-9.62;0.37;-0.18;0.89;-0.23;3.92;-3.22;2.52
4084;-2.79;-9.62;0.19;-0.18;0.89;-0.24;2.87;-2.87;1.89
4093;-2.89;-9.52;0.39;-0.18;0.89;-0.24;0.91;-0.91;-0.07
4101;-2.86;-9.53;0.46;-0.18;0.89;-0.24;-3.08;1.61;-2.59
4110;-2.94;-9.45;0.43;-0.19;0.89;-0.23;-5.18;2.31;-3.36
4119;-2.94;-9.46;0.24;-0.19;0.89;-0.23;-4.55;1.47;-3.64
4128;-2.81;-9.53;0.43;-0.19;0.89;-0.23;-1.33;0.35;-2.45
4136;-2.79;-9.46;0.55;-0.19;0.88;-0.23;2.66;0.98;-0.84
4145;-2.81;-9.43;0.41;-0.19;0.88;-0.23;6.16;2.10;-0.14
4154;-2.65;-9.53;0.58;-0.19;0.88;-0.23;7.98;3.92;1.26
4163;-2.67;-9.54;0.24;-0.18;0.88;-0.23;9.87;3.78;3.15
4171;-2.71;-9.53;0.18;-0.18;0.88;-0.23;12.39;3.08;4.27
4180;-2.66;-9.53;0.21;-0.18;0.88;-0.23;12.95;1.82;4.90
4189;-2.73;-9.53;0.24;-0.18;0.89;-0.22;11.76;1.47;4.27
4197;-2.73;-9.43;0.34;-0.18;0.89;-0.22;9.10;2.24;3.01
4206;-2.80;-9.51;0.29;-0.18;0.89;-0.22;3.50;4.34;0.77
4215;-2.73;-9.59;0.22;-0.18;0.89;-0.23;-1.33;6.58;-0.84
4224;-2.64;-9.61;0.37;-0.18;0.89;-0.23;-4.62;7.91;-2.59
4232;-2.79;-9.87;0.14;-0.18;0.89;-0.23;-6.79;8.33;-2.24
4241;-2.66;-9.95;0.06;-0.19;0.89;-0.24;-5.25;7.07;0.14
4250;-2.63;-9.97;0.02;-0.19;0.89;-0.24;-0.77;4.48;3.92
4259;-2.63;-9.97;0.00;-0.19;0.89;-0.24;5.46;2.38;7.84
4267;-2.66;-9.81;0.01;-0.19;0.89;-0.23;11.76;-0.49;10.43
4276;-2.61;-9.63;0.03;-0.19;0.89;-0.23;15.19;-1.47;11.90
4285;-2.49;-9.52;0.03;-0.19;0.89;-0.23;14.00;-1.68;11.48
4294;-2.51;-9.58;0.04;-0.18;0.90;-0.24;10.78;-1.40;10.64
4302;-2.41;-9.56;0.09;-0.18;0.90;-0.24;7.42;-0.07;9.10
4311;-2.38;-9.52;0.01;-0.18;0.90;-0.24;4.97;0.84;7.70
4320;-2.33;-9.62;0.06;-0.18;0.90;-0.23;3.92;1.61;6.65
4329;-2.35;-9.76;0.09;-0.18;0.90;-0.23;3.01;2.17;7.07
4337;-2.54;-9.81;0.17;-0.18;0.90;-0.23;1.96;3.22;6.93
4346;-2.60;-10.03;0.05;-0.17;0.91;-0.23;2.17;4.20;7.91
4355;-2.56;-10.05;0.09;-0.17;0.91;-0.23;3.64;3.36;10.29
4364;-2.61;-9.92;-0.09;-0.18;0.89;-0.23;6.16;0.56;12.81
4372;-2.43;-9.69;-0.11;-0.18;0.89;-0.23;9.73;-2.24;14.14
4381;-2.50;-9.67;-0.22;-0.18;0.89;-0.23;11.83;-4.41;13.02
4390;-2.40;-9.57;-0.08;-0.17;0.90;-0.23;13.72;-5.53;12.04
4399;-2.42;-9.61;-0.01;-0.17;0.90;-0.23;13.37;-7.21;10.99
4407;-2.45;-9.62;0.02;-0.17;0.90;-0.23;11.06;-7.21;7.98
4416;-2.56;-9.72;0.22;-0.17;0.90;-0.23;6.58;-5.53;5.60
4425;-2.47;-9.88;0.32;-0.17;0.90;-0.23;1.68;-2.38;3.99
4434;-2.46;-9.88;0.42;-0.17;0.90;-0.23;-1.82;1.26;3.71
4442;-2.38;-9.95;0.39;-0.17;0.90;-0.23;-2.66;4.06;4.69
4451;-2.40;-9.91;0.22;-0.17;0.90;-0.23;-2.73;4.83;5.04
4460;-2.33;-10.07;0.22;-0.17;0.90;-0.23;-2.73;4.20;6.02
4469;-2.39;-10.14;0.17;-0.17;0.90;-0.23;-0.98;2.03;7.35
4477;-2.43;-9.83;0.06;-0.17;0.90;-0.23;1.82;-1.75;8.33
4486;-2.46;-9.78;0.04;-0.17;0.90;-0.23;4.41;-4.27;7.70
4495;-2.42;-9.65;0.11;-0.18;0.90;-0.23;4.83;-4.48;6.16
4504;-2.40;-9.61;0.32;-0.18;0.90;-0.23;2.24;-4.27;3.99
4512;-2.48;-9.58;0.09;-0.18;0.90;-0.23;-1.19;-3.22;1.05
4521;-2.47;-9.72;0.22;-0.17;0.91;-0.23;-4.41;-1.75;-1.47
4530;-2.40;-9.79;0.19;-0.17;0.91;-0.23;-5.53;-0.07;-2.17
4539;-2.44;-9.70;0.09;-0.17;0.91;-0.23;-3.85;0.84;-2.03
4548;-2.60;-9.82;0.15;-0.17;0.90;-0.23;-1.68;1.61;-1.26
4556;-2.56;-9.73;0.04;-0.17;0.90;-0.23;0.56;2.17;-0.21
4565;-2.58;-9.76;0.07;-0.17;0.90;-0.23;0.63;1.96;-0.91
4574;-2.66;-9.68;-0.01;-0.17;0.89;-0.23;-0.84;1.26;-1.96
4583;-2.60;-9.83;0.00;-0.17;0.89;-0.23;-2.10;-17.71;-2.59
4591;-2.63;-9.93;-0.12;-0.17;0.89;-0.23;-2.52;-1.12;-2.17
4600;-2.76;-9.88;-0.11;-0.17;0.90;-0.22;-0.98;-2.03;-1.82
4609;-2.73;-9.84;-0.05;-0.17;0.90;-0.22;0.00;-1.96;-1.89
4617;-2.81;-9.75;-0.04;-0.17;0.90;-0.22;-0.56;-0.56;-2.45
4626;-2.71;-9.70;-0.09;-0.17;0.90;-0.22;-2.73;0.35;-3.08
4635;-2.62;-9.72;-0.17;-0.17;0.90;-0.22;-4.97;2.59;-3.71
4644;-2.58;-9.74;-0.24;-0.17;0.90;-0.22;-5.53;3.29;-4.20
4652;-3.07;-9.78;-0.34;-0.18;0.89;-0.22;-3.29;1.75;-5.46
4661;-2.11;-9.72;-0.22;-0.18;0.89;-0.22;-1.19;0.07;-2.66
4670;-2.79;-9.85;-0.17;-0.18;0.89;-0.22;0.98;0.84;-0.77
4679;-2.51;-9.76;-0.23;-0.18;0.91;-0.22;0.77;-1.75;-0.63
4687;-2.46;-9.88;-0.11;-0.18;0.91;-0.22;-0.14;-0.77;-0.14
4696;-2.58;-9.69;-0.04;-0.18;0.91;-0.22;-2.17;-1.05;-0.63
4705;-2.40;-9.70;-0.09;-0.17;0.90;-0.24;-3.01;-0.70;-0.77
4714;-2.39;-9.64;-0.07;-0.17;0.90;-0.24;-2.94;-0.70;-1.96
4722;-2.35;-9.59;-0.01;-0.17;0.90;-0.23;-3.92;-1.12;-2.87
4731;-2.36;-9.64;-0.07;-0.17;0.90;-0.23;-4.41;-0.98;-3.36
4740;-2.44;-9.73;0.20;-0.17;0.90;-0.23;-3.99;-0.35;-2.73
4749;-2.43;-9.71;0.33;-0.18;0.89;-0.23;-2.94;0.56;-2.10
4757;-2.42;-9.63;0.29;-0.18;0.89;-0.23;-1.82;1.40;-0.98
4766;-2.31;-9.71;0.31;-0.18;0.89;-0.23;-1.40;0.98;-0.42
4775;-2.25;-9.62;0.34;-0.18;0.89;-0.24;-1.96;0.56;-0.14
4784;-2.16;-9.56;0.30;-0.18;0.89;-0.24;-2.10;1.26;-0.49
4792;-2.09;-9.58;0.30;-0.18;0.89;-0.24;-2.94;1.75;-1.33
4801;-2.05;-9.45;0.14;-0.17;0.89;-0.23;-3.22;2.66;-2.03
4810;-2.09;-9.55;0.06;-0.17;0.89;-0.23;-2.59;2.10;-3.29
4819;-2.20;-9.50;0.03;-0.17;0.89;-0.23;-1.82;0.84;-4.13
4827;-2.24;-9.62;0.06;-0.17;0.90;-0.23;-1.61;-0.21;-4.97
4836;-2.28;-9.68;0.06;-0.17;0.90;-0.23;-1.89;-0.49;-5.32
4845;-2.50;-9.71;0.18;-0.17;0.90;-0.23;-1.68;-0.98;-5.74
4853;-2.63;-9.80;0.09;-0.17;0.91;-0.23;-2.45;-1.05;-6.30
4862;-2.65;-9.76;0.14;-0.17;0.91;-0.23;-4.13;-0.14;-7.00
4871;-2.48;-9.83;0.10;-0.17;0.91;-0.23;-6.30;0.07;-7.77
4880;-2.46;-9.90;0.29;-0.18;0.89;-0.24;-7.49;0.91;-9.17
4888;-2.45;-9.91;0.37;-0.18;0.89;-0.24;-8.47;1.47;-9.73
4897;-2.52;-10.02;0.14;-0.18;0.89;-0.24;-10.15;1.33;-9.73
4906;-2.69;-9.95;0.18;-0.19;0.89;-0.22;-9.10;0.84;-9.52
4915;-2.79;-9.96;0.32;-0.19;0.89;-0.22;-7.91;-0.07;-9.59
4923;-2.86;-10.07;0.32;-0.19;0.89;-0.22;-7.21;17.64;-8.96
4932;-2.98;-9.99;0.25;-0.18;0.88;-0.23;-6.51;-0.21;-8.19
4941;-3.01;-9.90;0.27;-0.18;0.88;-0.23;-6.79;0.63;-8.05
4950;-3.01;-9.83;0.38;-0.18;0.88;-0.23;-8.05;1.61;-8.19
4958;-2.99;-9.74;0.24;-0.19;0.89;-0.23;-9.87;3.36;-9.59
4967;-2.91;-9.70;0.39;-0.19;0.89;-0.23;-13.30;4.83;-10.92
4976;-2.96;-9.63;0.32;-0.19;0.89;-0.23;-15.82;5.95;-11.90
4985;-2.87;-9.70;0.23;-0.19;0.88;-0.23;-17.78;6.02;-12.60
4993;-2.91;-9.60;0.39;-0.19;0.88;-0.23;-18.48;6.58;-12.88
5002;-2.91;-9.50;0.42;-0.19;0.88;-0.23;-20.09;7.07;-13.16
5011;-2.80;-9.32;0.50;-0.20;0.89;-0.25;-20.86;7.91;-14.07
5020;-2.99;-9.20;0.46;-0.20;0.89;-0.25;-21.14;9.24;-15.05
5028;-3.18;-9.26;0.54;-0.20;0.89;-0.25;-21.21;9.45;-16.31
5037;-3.14;-9.27;0.54;-0.19;0.88;-0.25;-20.23;9.38;-16.80
5046;-3.22;-9.37;0.67;-0.19;0.88;-0.25;-19.04;9.59;-17.15
5055;-3.40;-9.47;0.65;-0.19;0.88;-0.25;-18.55;9.87;-17.50
5063;-3.30;-9.56;0.57;-0.19;0.88;-0.25;-18.41;9.73;-17.92
5072;-3.39;-9.73;0.60;-0.19;0.88;-0.25;-17.99;9.31;-17.50
5081;-3.42;-9.76;0.54;-0.19;0.88;-0.25;-16.52;8.40;-16.38
5090;-3.24;-9.86;0.57;-0.19;0.88;-0.25;-15.47;7.49;-15.40
5098;-3.37;-9.83;0.64;-0.19;0.88;-0.25;-13.44;7.84;-14.07
5107;-3.37;-9.78;0.67;-0.19;0.88;-0.25;-11.20;7.98;-13.02
5116;-3.43;-9.68;0.57;-0.18;0.87;-0.25;-9.73;9.17;-11.48
5125;-3.46;-9.53;0.59;-0.18;0.87;-0.25;-8.61;10.57;-10.64
5134;-3.44;-9.58;0.41;-0.19;0.87;-0.26;-7.98;10.08;-9.87
5142;-3.32;-9.58;0.39;-0.19;0.87;-0.26;-7.84;9.73;-10.15
5151;-3.29;-9.50;0.47;-0.19;0.87;-0.26;-10.36;9.66;-11.48
5160;-3.21;-9.51;0.42;-0.20;0.88;-0.27;-14.07;10.15;-12.95
5169;-3.22;-9.47;0.43;-0.20;0.88;-0.27;-17.92;9.73;-15.26
5177;-3.32;-9.43;0.44;-0.20;0.88;-0.27;-20.44;9.24;-16.66
5186;-3.37;-9.33;0.47;-0.20;0.87;-0.26;-22.26;7.49;-18.06
5195;-3.43;-9.25;0.50;-0.20;0.87;-0.26;-22.33;6.16;-19.46
5204;-3.38;-9.38;0.61;-0.20;0.87;-0.26;-22.82;4.97;-20.02
5213;-3.40;-9.39;0.73;-0.19;0.87;-0.26;-21.28;5.04;-19.46
5221;-3.40;-9.43;0.82;-0.19;0.87;-0.26;-19.25;6.16;-18.34
5230;-3.45;-9.42;0.83;-0.19;0.87;-0.26;-17.08;6.44;-16.59
5239;-3.36;-9.39;1.00;-0.21;0.86;-0.26;-14.63;6.86;-14.42
5247;-3.52;-9.40;1.00;-0.21;0.86;-0.26;-13.86;7.21;-13.79
5256;-3.44;-9.39;0.97;-0.21;0.86;-0.26;-15.12;7.56;-14.49
5265;-3.29;-9.50;0.93;-0.20;0.85;-0.27;-17.85;7.84;-15.19
5274;-3.32;-9.50;0.98;-0.20;0.85;-0.27;-19.95;7.98;-15.82
5283;-3.34;-9.39;1.12;-0.20;0.85;-0.27;-22.82;7.91;-17.99
5291;-3.36;-9.35;1.18;-0.20;0.86;-0.27;-26.39;8.26;-19.53
5300;-3.47;-9.20;1.16;-0.20;0.86;-0.27;-29.61;7.28;-21.56
5309;-3.41;-9.26;1.38;-0.20;0.86;-0.27;-32.41;7.00;-23.38
5318;-3.47;-9.20;1.54;-0.20;0.85;-0.28;-35.21;7.49;-24.78
5327;-3.45;-9.20;1.92;-0.20;0.85;-0.28;-38.08;9.59;-25.97
5335;-3.47;-9.09;2.08;-0.20;0.85;-0.28;-40.67;12.74;-27.09
5344;-3.28;-9.30;1.95;-0.22;0.85;-0.30;-42.07;15.05;-26.46
5353;-3.18;-9.26;1.91;-0.22;0.85;-0.30;-41.16;15.40;-25.20
5362;-3.23;-9.16;1.80;-0.22;0.85;-0.30;-36.61;13.37;-23.03
5370;-3.33;-9.06;1.76;-0.22;0.84;-0.29;-31.29;10.99;-21.14
5379;-3.47;-8.97;1.72;-0.22;0.84;-0.29;-25.27;8.47;-20.02
5388;-3.45;-8.84;1.78;-0.22;0.84;-0.29;-21.91;6.65;-21.00
5397;-3.54;-8.97;1.91;-0.21;0.83;-0.30;-22.47;6.72;-23.03
5406;-3.69;-8.89;1.76;-0.21;0.83;-0.30;-26.04;8.19;-25.76
5414;-3.78;-8.94;1.73;-0.21;0.83;-0.30;-29.40;9.31;-28.21
5423;-3.82;-9.01;1.74;-0.21;0.83;-0.30;-32.20;9.94;-29.40
5432;-3.96;-9.07;1.59;-0.21;0.83;-0.30;-32.76;9.31;-28.98
5440;-4.15;-9.17;1.67;-0.21;0.83;-0.30;-31.29;6.79;-28.77
5449;-4.10;-9.18;1.65;-0.23;0.82;-0.31;-30.45;4.90;-28.35
5458;-4.33;-9.05;1.77;-0.23;0.82;-0.31;-31.71;3.71;-28.77
5467;-4.50;-10.96;1.76;-0.23;0.82;-0.32;-34.58;3.22;-30.10
5475;-4.62;-9.13;1.71;-0.24;0.82;-0.32;-38.50;2.66;-31.71
5484;-4.80;-9.17;2.14;-0.24;0.82;-0.32;-41.37;2.87;-32.41
5493;-4.57;-9.22;2.47;-0.23;0.81;-0.31;-44.87;6.37;-32.97
5502;-4.85;-9.10;2.79;-0.23;0.81;-0.31;-45.99;12.88;-34.51
5511;-5.36;-8.88;2.65;-0.23;0.81;-0.31;-48.37;15.54;-32.97
5520;-5.15;-8.82;2.75;-0.24;0.80;-0.34;-47.60;18.27;-32.69
5528;-5.10;-8.77;2.64;-0.24;0.80;-0.34;-45.64;20.58;-31.36
5537;-5.28;-8.75;2.44;-0.24;0.80;-0.34;-43.47;20.58;-29.68
5546;-5.28;-8.66;2.46;-0.23;0.79;-0.33;-40.81;0.00;-27.44
5555;-5.30;-8.62;2.53;-0.23;0.79;-0.33;-39.48;14.63;-27.23
5563;-5.25;-8.39;2.68;-0.23;0.79;-0.33;-40.25;12.88;-27.30
5572;-5.12;-8.34;2.79;-0.23;0.80;-0.34;-43.19;12.74;-28.21
5581;-5.21;-8.20;2.96;-0.23;0.80;-0.34;-46.62;13.02;-30.80
5590;-5.25;-8.14;3.12;-0.23;0.80;-0.34;-50.47;14.70;-32.90
5598;-5.10;-7.98;3.33;-0.24;0.77;-0.35;-54.74;18.69;-34.93
5607;-5.13;-7.90;3.48;-0.24;0.77;-0.35;-58.73;24.78;-36.47
5616;-5.13;-7.93;3.52;-0.24;0.77;-0.35;-58.80;30.31;-36.75
5624;-5.18;-7.87;3.26;-0.23;0.77;-0.36;-56.49;31.08;-34.44
5633;-5.07;-7.74;3.14;-0.23;0.77;-0.36;-49.91;28.56;-31.50
5642;-5.00;-7.85;3.11;-0.23;0.77;-0.36;-46.83;24.85;-29.75
5651;-4.90;-7.56;3.22;-0.23;0.75;-0.37;-45.92;21.21;-30.24
5660;-4.82;-7.46;3.63;-0.23;0.75;-0.37;-49.14;18.62;-32.06
5668;-4.72;-7.37;3.85;-0.23;0.75;-0.37;-55.16;17.43;-35.35
5677;-4.75;-7.11;4.13;-0.23;0.75;-0.38;-59.64;17.78;-38.29
5686;-4.69;-6.84;4.28;-0.23;0.75;-0.38;-61.88;19.67;-41.79
5695;-4.62;-6.67;4.41;-0.23;0.75;-0.38;-59.50;22.19;-45.08
5703;-4.73;-6.71;4.49;-0.25;0.73;-0.39;-56.21;25.34;-46.55
5712;-4.82;-6.68;4.32;-0.25;0.73;-0.39;-53.41;27.93;-47.60
5721;-4.82;-6.80;4.03;-0.25;0.73;-0.39;-50.40;26.81;-45.29
5730;-4.97;-6.88;3.98;-0.25;0.73;-0.39;-46.06;22.96;-43.89
5739;-5.00;-6.86;3.78;-0.25;0.73;-0.39;-41.09;16.52;-41.51
5747;-5.11;-6.87;3.93;-0.25;0.73;-0.39;-36.61;11.83;-39.69
5756;-5.13;-6.85;4.17;-0.24;0.71;-0.39;-34.86;8.40;-39.69
5765;-5.31;-6.84;4.24;-0.24;0.71;-0.39;-35.56;6.79;-40.95
5774;-5.55;-6.70;4.35;-0.24;0.71;-0.39;-39.20;7.21;-43.75
5782;-5.71;-6.58;4.57;-0.24;0.70;-0.41;-44.17;7.98;-46.97
5791;-5.78;-6.52;4.87;-0.24;0.70;-0.41;-50.26;11.48;-51.94
5800;-6.06;-6.26;5.17;-0.24;0.70;-0.40;-58.94;17.50;-56.91
5809;-6.20;-6.41;5.29;-0.24;0.69;-0.40;-65.59;26.39;-61.60
5818;-6.30;-6.53;5.20;-0.24;0.69;-0.40;-69.09;27.37;-62.09
5826;-6.17;-6.68;4.97;-0.24;0.67;-0.41;-65.66;26.74;-58.24
5835;-6.27;-6.61;4.85;-0.24;0.67;-0.41;-54.95;22.61;-52.43
5844;-6.27;-6.53;4.72;-0.24;0.67;-0.41;-43.26;16.66;-46.48
5853;-6.32;-6.41;4.85;-0.25;0.66;-0.41;-31.50;11.97;-40.53
5861;-6.45;-6.28;5.04;-0.25;0.66;-0.41;-24.85;9.45;-37.66
5870;-6.42;-6.17;5.05;-0.25;0.66;-0.41;-26.46;9.59;-37.03
5879;-6.58;-6.00;5.21;-0.25;0.66;-0.41;-33.39;11.90;-40.18
5888;-6.50;-5.66;5.39;-0.25;0.66;-0.41;-44.66;14.42;-47.46
5896;-6.54;-5.41;5.78;-0.25;0.66;-0.41;-58.38;19.11;-55.44
5905;-6.53;-5.33;5.77;-0.25;0.65;-0.43;-71.12;23.80;-62.37
5914;-6.50;-5.44;5.92;-0.25;0.65;-0.43;-73.99;25.20;-65.52
5923;-6.27;-5.34;5.93;-0.25;0.65;-0.43;-68.53;24.64;-63.98
5931;-6.54;-5.37;5.99;-0.25;0.61;-0.42;-55.79;24.99;-57.05
5940;-6.55;-5.40;5.89;-0.25;0.61;-0.42;-43.47;22.33;-51.59
5949;-6.63;-5.23;5.97;-0.25;0.61;-0.42;-36.54;20.51;-47.53
5958;-6.75;-5.26;5.92;-0.25;0.61;-0.43;-34.65;19.95;-45.78
5966;-6.74;-4.85;6.20;-0.25;0.61;-0.43;-39.34;19.25;-46.55
5975;-6.64;-4.77;6.30;-0.25;0.61;-0.43;-47.32;22.05;-49.91
5984;-6.70;-4.57;6.35;-0.24;0.58;-0.43;-58.87;26.67;-55.65
5993;-6.58;-4.39;6.37;-0.24;0.58;-0.43;-71.54;30.59;-61.67
6001;-6.42;-4.58;6.09;-0.24;0.58;-0.43;-79.59;32.27;-66.01
6010;-6.32;-4.67;5.96;-0.24;0.58;-0.43;-74.90;29.26;-63.91
6019;-6.19;-4.67;5.89;-0.24;0.58;-0.43;-62.79;24.01;-58.45
6028;-6.17;-4.55;5.99;-0.24;0.58;-0.43;-47.53;19.11;-51.10
6036;-6.68;-4.64;6.15;-0.24;0.56;-0.42;-34.93;17.92;-44.24
6045;-6.67;-4.39;6.24;-0.24;0.56;-0.42;-31.29;16.31;-41.51
6054;-6.88;-4.31;6.40;-0.24;0.56;-0.42;-35.07;18.62;-45.50
6063;-6.87;-4.24;6.42;-0.23;0.55;-0.44;-44.52;23.24;-50.54
6071;-6.93;-4.18;6.54;-0.23;0.55;-0.44;-58.10;29.19;-57.68
6080;-6.72;-4.11;6.73;-0.23;0.55;-0.44;-75.74;36.54;-64.82
6089;-6.91;-4.36;6.50;-0.25;0.53;-0.46;-93.73;42.28;-67.83
6098;-6.66;-4.56;6.08;-0.25;0.53;-0.46;-96.11;40.81;-66.29
6106;-6.38;-4.41;5.84;-0.25;0.53;-0.46;-82.11;31.36;-53.27
6115;-6.42;-4.13;5.86;-0.23;0.51;-0.44;-54.11;19.74;-40.67
6124;-6.49;-3.75;6.05;-0.23;0.51;-0.44;-31.78;10.85;-29.40
6133;-6.70;-3.36;6.61;-0.23;0.51;-0.44;-19.39;5.39;-22.05
6142;-6.61;-2.78;7.11;-0.23;0.49;-0.45;-18.06;3.78;-22.12
6150;-6.82;-2.51;7.35;-0.23;0.49;-0.45;-24.36;10.50;-26.67
6159;-6.68;-2.17;7.47;-0.23;0.49;-0.45;-38.01;16.59;-34.58
6168;-6.62;-1.86;7.58;-0.22;0.48;-0.45;-53.83;24.36;-45.01
6177;-6.15;-1.72;7.39;-0.22;0.48;-0.45;-71.75;34.30;-57.54
6185;-6.14;-1.73;7.37;-0.23;0.48;-0.46;-91.42;43.54;-67.69
6194;-5.98;-1.86;6.71;-0.23;0.48;-0.46;-98.70;44.66;-74.06
6203;-5.99;-2.05;6.11;-0.23;0.48;-0.46;-90.37;37.73;-72.24
6212;-6.09;-2.22;6.27;-0.21;0.45;-0.45;-73.29;26.60;-63.28
6220;-6.25;-2.44;6.26;-0.21;0.45;-0.45;-56.49;12.74;-50.89
6229;-6.50;-2.13;6.75;-0.21;0.45;-0.45;-37.31;2.24;-38.99
6238;-6.36;-1.92;7.34;-0.21;0.44;-0.46;-25.13;-2.66;-29.47
6247;-6.75;-1.64;8.00;-0.21;0.44;-0.46;-20.72;-2.52;-26.67
6255;-6.96;-1.44;8.17;-0.21;0.44;-0.46;-20.44;1.54;-27.58
6264;-6.67;-1.03;8.28;-0.20;0.43;-0.45;-25.34;6.58;-31.71
6273;-6.43;-0.70;8.13;-0.20;0.43;-0.45;-31.71;15.54;-36.82
6282;-6.42;-0.43;8.23;-0.20;0.43;-0.45;-42.14;24.43;-45.78
6290;-6.46;-0.24;7.90;-0.21;0.42;-0.46;-57.54;33.04;-55.65
6299;-6.35;-0.45;7.77;-0.21;0.42;-0.46;-77.98;38.01;-66.57
6308;-6.13;-0.64;7.17;-0.21;0.42;-0.46;-90.16;38.99;-71.54
6317;-5.94;-0.80;6.89;-0.19;0.40;-0.46;-90.23;34.51;-69.16
6326;-6.12;-0.76;6.86;-0.19;0.40;-0.46;-78.40;26.39;-63.42
6334;-5.88;-0.83;6.98;-0.19;0.40;-0.46;-68.60;19.53;-57.75
6343;-6.11;-0.74;7.19;-0.20;0.38;-0.45;-61.25;15.12;-51.87
6352;-6.22;-0.50;7.39;-0.20;0.38;-0.45;-57.05;11.41;-47.81
6361;-6.27;-0.41;7.65;-0.20;0.38;-0.45;-54.39;11.55;-44.94
6369;-6.29;-0.22;7.82;-0.18;0.36;-0.45;-56.07;14.42;-44.94
6378;-6.55;-0.06;8.02;-0.18;0.36;-0.45;-60.90;17.29;-45.50
6387;-6.44;0.04;7.87;-0.18;0.36;-0.45;-65.80;19.53;-48.37
6396;-6.96;2.09;7.37;-0.18;0.36;-0.45;-69.23;15.61;-49.77
6404;-4.95;-0.22;8.10;-0.18;0.36;-0.45;-70.98;12.46;-58.31
6413;-5.57;0.62;7.68;-0.18;0.36;-0.45;-65.94;21.91;-51.38
6422;-6.04;0.87;7.54;-0.17;0.34;-0.43;-58.03;0.42;-48.44
6431;-5.38;0.81;7.65;-0.17;0.34;-0.43;-56.91;17.01;-46.13
6439;-6.09;0.97;7.62;-0.17;0.34;-0.43;-55.23;15.68;-47.18
6448;-5.47;1.04;7.69;-0.16;0.33;-0.44;-56.00;12.60;-45.15
6457;-6.21;0.78;7.71;-0.16;0.33;-0.44;-54.81;11.06;-42.14
6466;-5.94;0.95;7.71;-0.16;0.33;-0.44;-49.91;8.26;-39.48
6474;-5.92;1.13;7.78;-0.15;0.30;-0.44;-42.56;7.21;-34.51
6483;-5.92;1.18;7.82;-0.15;0.30;-0.44;-36.05;3.57;-31.85
6492;-5.57;1.05;7.85;-0.15;0.30;-0.44;-28.63;5.04;-26.81
6501;-5.69;1.08;7.74;-0.15;0.31;-0.43;-23.31;6.02;-24.43
6509;-5.61;1.17;7.54;-0.15;0.31;-0.43;-25.55;6.51;-24.99
6518;-5.61;1.27;7.48;-0.15;0.31;-0.43;-32.34;7.70;-28.70
6527;-5.56;1.12;7.51;-0.15;0.29;-0.43;-39.34;7.35;-31.36
6536;-5.55;1.31;7.42;-0.15;0.29;-0.43;-43.26;6.72;-33.46
6544;-5.38;1.34;7.48;-0.15;0.27;-0.44;-48.79;6.93;-34.16
6553;-5.60;1.39;7.36;-0.14;0.27;-0.44;-52.08;5.81;-33.18
6562;-5.64;1.32;7.29;-0.14;0.27;-0.44;-48.37;2.66;-30.80
6571;-5.66;1.31;7.42;-0.14;0.27;-0.44;-39.69;-1.47;-26.04
6579;-5.84;1.16;7.57;-0.14;0.27;-0.44;-27.02;-4.48;-18.76
6588;-5.77;1.21;7.58;-0.14;0.27;-0.44;-15.12;-6.58;-11.76
6597;-5.79;1.36;7.73;-0.15;0.27;-0.42;-6.58;-7.07;-5.74
6606;-5.66;1.56;8.00;-0.15;0.27;-0.42;-3.92;-4.13;-2.66
6615;-5.64;1.91;7.85;-0.15;0.27;-0.42;-8.96;0.42;-2.38
6623;-5.68;2.00;7.67;-0.14;0.27;-0.42;-14.42;3.36;-3.08
6632;-5.57;2.23;7.53;-0.14;0.27;-0.42;-14.42;4.55;-2.94
6641;-5.47;2.39;7.40;-0.14;0.27;-0.42;-10.22;3.99;-1.96
6650;-5.46;2.55;5.57;-0.14;0.27;-0.42;-4.20;1.26;-0.63
6658;-5.35;2.50;7.43;-0.14;0.27;-0.42;1.33;-0.84;0.98
6667;-5.53;2.57;7.29;-0.14;0.27;-0.42;4.55;-3.08;3.29
6676;-5.54;2.43;7.33;-0.14;0.26;-0.43;6.72;-4.83;6.02
6685;-5.51;2.34;7.43;-0.14;0.26;-0.43;9.31;-6.51;7.91
6693;-5.58;2.17;7.82;-0.14;0.26;-0.43;11.62;-7.70;10.43
6702;-5.46;2.12;7.72;-0.15;0.27;-0.44;14.35;-7.70;13.09
6711;-5.53;2.35;7.87;-0.15;0.27;-0.44;16.94;-5.74;14.21
6720;-5.48;2.43;7.90;-0.15;0.27;-0.44;16.31;-4.48;12.95
6728;-5.43;2.45;7.75;-0.15;0.28;-0.44;11.13;-2.17;8.61
6737;-5.37;2.48;7.47;-0.15;0.28;-0.44;4.76;-1.19;4.20
6746;-5.44;2.41;7.42;-0.15;0.28;-0.44;0.63;-1.82;0.84
6755;-5.35;2.29;7.45;-0.14;0.27;-0.42;-2.24;-2.87;-0.35
6764;-5.47;2.23;7.31;-0.14;0.27;-0.42;-0.56;-4.62;-0.21
6772;-5.54;1.89;7.52;-0.14;0.27;-0.42;2.66;-5.88;1.54
6781;-5.63;1.89;7.67;-0.15;0.28;-0.42;6.30;-7.07;4.06
6790;-5.68;1.82;7.84;-0.15;0.28;-0.42;7.42;-7.00;4.27
6798;-5.77;3.65;7.88;-0.15;0.28;-0.42;5.88;-6.23;3.08
6807;-5.74;1.64;8.00;-0.15;0.27;-0.44;-0.07;-4.83;1.05
6816;-5.64;1.66;7.95;-0.15;0.27;-0.44;-6.16;-2.17;-0.28
6825;-5.67;1.75;7.77;-0.15;0.27;-0.44;-6.86;-1.33;-0.28
6834;-5.53;1.92;7.87;-0.15;0.27;-0.42;-6.02;-2.17;-0.14
6842;-5.34;2.10;7.91;-0.15;0.27;-0.42;-6.37;-1.75;-0.07
6851;-5.58;2.10;7.62;-0.15;0.27;-0.42;-7.63;-1.54;-0.49
6860;-5.69;2.17;7.69;-0.15;0.27;-0.43;-8.89;-1.54;-1.61
6868;-5.64;2.18;7.67;-0.15;0.27;-0.43;-9.80;-2.45;-1.82
6877;-5.58;1.98;7.65;-0.15;0.27;-0.43;-8.26;-2.73;0.07
6886;-5.51;2.18;7.65;-0.14;0.28;-0.42;-4.27;-2.73;2.80
6895;-5.73;2.22;7.70;-0.14;0.28;-0.42;0.91;-3.29;3.92
6904;-5.58;2.20;7.80;-0.14;0.28;-0.42;3.15;-2.73;4.13
6912;-5.62;2.20;7.82;-0.15;0.27;-0.42;2.31;-1.82;3.92
6921;-5.68;2.13;7.70;-0.15;0.27;-0.42;1.26;-1.82;1.75
6930;-5.56;2.04;7.60;-0.15;0.28;-0.43;-1.05;-2.10;1.05
6938;-5.79;1.90;7.59;-0.15;0.28;-0.43;-3.50;-2.80;1.33
6947;-5.53;2.07;7.55;-0.15;0.28;-0.43;-4.20;-3.01;1.19
6956;-5.53;2.40;7.63;-0.15;0.27;-0.42;-1.89;-2.66;1.96
6965;-5.69;2.38;7.68;-0.15;0.27;-0.42;0.49;-2.10;1.40
6974;-5.72;2.46;7.83;-0.15;0.27;-0.42;2.17;-2.38;0.07
6982;-5.71;2.16;7.96;-0.14;0.27;-0.43;2.24;-1.82;-0.56
6991;-5.70;1.94;7.68;-0.14;0.27;-0.43;0.84;-0.70;-0.63
7000;-5.56;1.72;7.72;-0.14;0.27;-0.43;0.98;-0.84;0.56
7008;-5.61;1.62;7.58;-0.15;0.27;-0.44;1.19;-1.12;1.96
7017;-5.63;1.71;7.47;-0.15;0.27;-0.44;1.05;-1.68;3.08
7026;-5.64;1.92;7.44;-0.15;0.27;-0.44;1.12;-2.59;4.20
7035;-5.62;2.10;7.44;-0.15;0.27;-0.43;2.66;-3.08;4.69
7043;-5.72;2.10;7.46;-0.15;0.27;-0.43;4.34;-3.36;4.27
7052;-5.65;1.90;7.57;-0.15;0.27;-0.43;3.43;-3.43;3.57
7061;-5.66;1.79;7.56;-0.14;0.27;-0.42;2.24;-2.66;2.94
7070;-5.63;1.67;7.62;-0.14;0.27;-0.42;0.70;-1.96;1.68
7079;-5.58;1.67;7.65;-0.14;0.27;-0.42;-2.66;-1.75;2.17
7087;-5.61;1.88;7.66;-0.15;0.27;-0.42;-2.45;-0.56;2.31
7096;-5.64;2.00;7.57;-0.15;0.27;-0.42;-2.03;-1.26;1.96
7105;-5.56;2.00;7.63;-0.15;0.27;-0.42;-1.40;-1.47;2.52
7114;-5.58;2.06;7.61;-0.15;0.27;-0.42;-0.70;-1.89;3.01
7122;-5.61;2.07;7.57;-0.15;0.27;-0.42;1.40;-2.24;3.71
7131;-5.63;1.95;7.62;-0.15;0.27;-0.42;3.36;-2.73;4.20
7140;-5.77;1.87;7.75;-0.16;0.27;-0.42;4.20;-2.52;6.37
7149;-5.67;1.96;7.56;-0.16;0.27;-0.42;5.67;-2.45;7.98
7157;-5.72;1.86;7.60;-0.16;0.27;-0.42;8.40;-2.10;9.52
7166;-5.76;0.02;7.40;-0.15;0.28;-0.41;13.44;-2.87;12.88
7175;-5.94;1.62;7.50;-0.15;0.28;-0.41;19.53;-4.69;17.29
7184;-5.94;1.64;7.58;-0.15;0.28;-0.41;23.03;-6.16;21.70
7192;-5.96;1.72;7.53;-0.15;0.28;-0.44;27.51;-6.37;24.85
7201;-6.05;1.68;7.47;-0.15;0.28;-0.44;29.33;-5.95;26.11
7210;-5.93;1.57;7.62;-0.15;0.28;-0.44;27.86;-6.09;27.79
7219;-5.99;1.66;7.44;-0.17;0.29;-0.43;27.09;-5.25;29.26
7227;-6.31;1.51;7.54;-0.17;0.29;-0.43;26.46;-5.32;29.47
7236;-6.17;1.26;7.43;-0.17;0.29;-0.43;22.61;-5.04;28.91
7245;-6.43;0.85;7.54;-0.17;0.30;-0.43;18.41;-4.48;29.19
7254;-6.56;0.60;7.44;-0.17;0.30;-0.43;13.86;-3.43;30.52
7262;-6.30;0.65;7.20;-0.17;0.30;-0.43;14.70;-4.48;36.33
7271;-5.82;0.90;7.11;-0.17;0.30;-0.42;26.88;-5.88;46.06
7280;-5.59;1.52;7.01;-0.17;0.30;-0.42;43.40;-9.17;54.88
7289;-5.66;2.07;7.27;-0.17;0.31;-0.42;57.96;-14.28;61.25
7297;-5.68;2.34;7.45;-0.17;0.31;-0.42;65.45;-19.46;59.36
7306;-5.76;2.59;7.74;-0.17;0.31;-0.42;61.04;-19.39;51.24
7315;-5.89;2.33;7.84;-0.18;0.33;-0.42;47.60;-16.24;41.93
7324;-6.00;1.79;7.87;-0.18;0.33;-0.42;32.90;-11.20;31.36
7332;-6.11;1.33;7.68;-0.18;0.33;-0.42;23.94;-5.18;26.18
7341;-6.11;0.79;7.48;-0.18;0.33;-0.43;22.47;-3.64;25.76
7350;-6.22;0.18;7.01;-0.18;0.33;-0.43;27.93;-4.62;30.38
7358;-6.26;-0.06;6.78;-0.18;0.33;-0.43;37.17;-5.88;40.60
7367;-6.20;-0.22;6.73;-0.18;0.35;-0.43;47.25;-9.10;53.13
7376;-6.21;0.00;6.85;-0.18;0.35;-0.43;57.68;-12.18;62.51
7385;-6.16;0.49;6.78;-0.18;0.35;-0.43;64.89;-14.70;69.37
7394;-6.16;0.91;6.86;-0.18;0.36;-0.44;68.88;-16.03;68.74
7402;-6.27;1.05;7.02;-0.18;0.36;-0.44;67.48;-16.87;62.72
7411;-6.14;0.95;7.09;-0.18;0.36;-0.44;58.66;-14.77;56.00
7420;-6.38;0.83;7.20;-0.19;0.37;-0.44;47.95;-8.26;50.40
7429;-6.50;0.09;7.13;-0.19;0.37;-0.44;34.65;-7.56;38.71
7437;-6.22;-0.53;6.84;-0.19;0.37;-0.44;24.92;-5.32;35.98
7446;-6.53;-1.21;6.57;-0.19;0.38;-0.44;20.30;-3.85;36.54
7455;-6.60;-1.57;6.48;-0.19;0.38;-0.44;18.48;-4.76;39.48
7464;-6.49;-1.74;6.42;-0.19;0.38;-0.44;19.60;-7.07;47.25
7472;-6.63;-1.66;6.54;-0.20;0.39;-0.45;25.13;-10.92;53.13
7481;-6.41;-1.39;6.91;-0.20;0.39;-0.45;29.89;-14.77;59.29
7490;-6.42;-1.70;6.88;-0.20;0.39;-0.45;37.73;-13.72;58.52
7499;-6.78;-1.36;7.24;-0.20;0.40;-0.45;35.56;-19.25;58.24
7507;-6.39;-1.39;7.45;-0.20;0.40;-0.45;32.55;-16.94;58.38
7516;-6.52;-1.36;7.82;-0.20;0.40;-0.45;26.39;-12.18;56.91
7525;-6.53;-1.46;7.71;-0.22;0.41;-0.44;23.24;-9.59;55.51
7534;-6.50;-1.48;7.65;-0.22;0.41;-0.44;25.83;-9.45;55.30
7542;-6.61;-1.48;7.70;-0.22;0.41;-0.44;32.06;-10.29;54.18
7551;-6.49;-1.17;7.86;-0.21;0.42;-0.45;41.72;-13.79;55.30
7560;-6.41;-1.42;8.05;-0.21;0.42;-0.45;54.11;-15.89;55.93
7569;-6.40;-1.41;8.05;-0.21;0.42;-0.45;62.58;-16.59;57.05
7577;-6.30;-1.57;8.17;-0.22;0.43;-0.45;67.20;-15.54;56.21
7586;-6.17;-1.60;8.21;-0.22;0.43;-0.45;68.11;-12.67;54.88
7595;-5.99;-1.79;8.00;-0.22;0.43;-0.45;65.66;-8.61;52.22
7604;-6.04;-1.93;7.84;-0.22;0.45;-0.45;61.53;-5.67;48.30
7612;-6.02;-2.25;7.54;-0.22;0.45;-0.45;56.35;-4.90;43.12
7621;-6.05;-2.61;7.40;-0.22;0.45;-0.45;52.64;-5.18;40.11
7630;-6.08;-2.91;7.27;-0.23;0.47;-0.46;52.36;-5.88;38.85
7639;-6.25;-3.04;7.30;-0.23;0.47;-0.46;52.99;-7.42;39.83
7647;-6.44;-3.19;7.26;-0.23;0.47;-0.46;54.32;-9.03;41.86
7656;-6.37;-3.32;7.19;-0.22;0.47;-0.45;57.75;-11.41;44.59
7665;-6.32;-3.27;7.12;-0.22;0.47;-0.45;64.89;-13.86;48.23
7674;-6.30;-3.27;7.19;-0.23;0.49;-0.44;70.98;-15.40;51.59
7682;-6.09;-3.18;7.31;-0.23;0.49;-0.44;74.76;-16.80;52.57
7691;-6.20;-3.36;7.26;-0.23;0.49;-0.44;75.11;-15.89;50.75
7700;-6.17;-3.33;7.26;-0.23;0.51;-0.44;70.63;-13.44;46.83
7709;-6.10;-3.49;7.37;-0.23;0.51;-0.44;63.91;-10.01;41.30
7717;-6.22;-3.75;7.09;-0.23;0.51;-0.44;56.42;-6.65;18.34
7726;-6.09;-3.86;6.81;-0.23;0.53;-0.44;53.76;-5.18;32.34
7735;-6.09;-4.18;6.80;-0.23;0.53;-0.44;55.16;-4.41;31.92
7744;-6.07;-4.34;6.57;-0.23;0.53;-0.44;61.18;-5.32;33.11
7752;-6.12;-4.52;6.46;-0.23;0.55;-0.44;67.06;-7.07;53.48
7761;-6.19;-4.60;6.39;-0.23;0.55;-0.44;72.38;-8.33;39.69
7770;-6.22;-4.59;6.35;-0.23;0.55;-0.44;74.55;-9.66;41.65
7779;-6.15;-4.64;6.25;-0.23;0.56;-0.44;73.36;-11.27;42.84
7787;-6.19;-4.57;6.29;-0.23;0.56;-0.44;70.00;-11.55;41.09
7796;-6.19;-4.71;6.22;-0.23;0.56;-0.44;65.31;-11.41;39.90
7805;-6.04;-4.85;6.17;-0.23;0.57;-0.44;61.46;-10.99;38.64
7814;-5.83;-4.80;6.06;-0.23;0.57;-0.44;58.80;-10.43;37.10
7822;-5.94;-5.06;6.10;-0.23;0.57;-0.44;58.10;-9.45;35.21
7831;-5.81;-5.15;5.81;-0.23;0.57;-0.44;58.45;-9.24;34.16
7840;-5.66;-5.27;5.91;-0.23;0.57;-0.44;58.73;-9.31;34.65
7849;-5.99;-5.28;5.83;-0.23;0.57;-0.44;57.96;-8.61;35.07
7857;-5.94;-5.34;5.83;-0.23;0.62;-0.44;58.52;-9.87;35.00
7866;-6.10;-5.43;5.84;-0.23;0.62;-0.44;60.20;-10.22;34.93
7875;-6.10;-5.55;5.58;-0.23;0.62;-0.44;64.54;-12.46;36.47
7884;-6.06;-5.59;5.76;-0.22;0.62;-0.43;67.34;-14.63;36.96
7892;-5.92;-5.60;5.76;-0.22;0.62;-0.43;66.92;-15.68;36.75
7901;-5.86;-5.69;5.69;-0.22;0.62;-0.43;64.40;-15.47;34.72
7910;-5.81;-5.86;5.67;-0.23;0.64;-0.44;59.36;-13.79;32.34
7919;-5.67;-5.91;5.33;-0.23;0.64;-0.44;56.49;-13.86;30.80
7927;-5.69;-6.10;5.30;-0.23;0.64;-0.44;58.10;-13.37;31.15
7936;-5.75;-6.45;5.18;-0.23;0.65;-0.42;60.48;-14.00;32.83
7945;-5.82;-6.54;5.00;-0.23;0.65;-0.42;65.73;-16.59;35.63
7954;-5.79;-6.73;4.88;-0.23;0.65;-0.42;71.26;-21.35;41.16
7962;-5.88;-6.98;4.84;-0.22;0.66;-0.41;74.76;-25.76;46.69
7971;-5.87;-7.01;4.90;-0.22;0.66;-0.41;75.81;-29.75;51.10
7980;-5.94;-6.83;4.97;-0.22;0.66;-0.41;73.64;-30.66;53.06
7989;-5.90;-6.75;4.99;-0.23;0.68;-0.40;68.67;-29.68;52.08
7997;-5.67;-6.63;4.92;-0.23;0.68;-0.40;64.61;-27.86;48.72
8006;-5.58;-6.82;4.70;-0.23;0.68;-0.40;62.16;-26.53;45.29
8015;-5.42;-7.03;4.57;-0.24;0.70;-0.40;63.21;-26.25;42.77
8024;-5.05;-7.16;4.75;-0.24;0.70;-0.40;62.86;-26.18;40.11
8032;-5.07;-7.35;4.65;-0.24;0.70;-0.40;60.20;-23.03;39.06
8041;-5.38;-7.49;4.44;-0.23;0.71;-0.38;57.33;-22.12;36.68
8050;-5.18;-7.67;4.23;-0.23;0.71;-0.38;54.74;-21.56;35.91
8059;-5.33;-7.97;4.11;-0.23;0.72;-0.38;53.76;-22.33;37.87
8067;-5.51;-8.03;4.01;-0.23;0.72;-0.38;57.82;-24.92;41.51
8076;-5.56;-8.32;3.86;-0.23;0.72;-0.38;64.47;-28.21;47.67
8085;-5.55;-8.13;3.90;-0.23;0.74;-0.36;72.38;-28.63;53.13
8094;-5.49;-7.89;3.77;-0.23;0.74;-0.36;76.23;-33.53;57.12
8102;-5.27;-7.97;3.63;-0.23;0.74;-0.36;77.98;-34.72;57.40
8111;-5.08;-7.79;3.69;-0.22;0.76;-0.35;78.19;-34.51;55.72
8120;-4.90;-7.78;3.55;-0.22;0.76;-0.35;72.38;-33.67;50.26
8129;-4.85;-7.71;3.63;-0.22;0.76;-0.35;62.93;-28.77;42.63
8137;-4.85;-7.65;3.56;-0.23;0.77;-0.35;49.56;-24.64;33.67
8146;-4.81;-8.04;3.29;-0.23;0.77;-0.35;37.94;-18.06;28.63
8155;-4.87;-8.28;2.99;-0.23;0.77;-0.35;32.55;-16.17;26.46
8164;-4.99;-8.51;3.07;-0.23;0.77;-0.33;32.76;-35.70;29.68
8172;-5.00;-8.66;2.70;-0.23;0.77;-0.33;39.13;-23.38;35.77
8181;-4.93;-8.71;2.45;-0.23;0.77;-0.33;48.72;-30.31;42.91
8190;-4.87;-8.62;2.55;-0.23;0.80;-0.34;59.92;-38.22;49.77
8199;-4.74;-8.53;2.80;-0.23;0.80;-0.34;67.76;-43.89;54.81
8207;-4.49;-8.28;2.88;-0.23;0.80;-0.34;67.97;-44.66;55.30
8216;-4.69;-8.11;3.09;-0.22;0.80;-0.33;60.83;-41.72;50.33
8225;-4.14;-7.98;3.00;-0.22;0.80;-0.33;48.72;-35.21;43.89
8234;-4.17;-8.03;2.79;-0.22;0.80;-0.33;36.96;-25.97;36.82
8242;-4.29;-8.12;2.50;-0.23;0.82;-0.31;29.54;-21.63;31.71
8251;-4.26;-8.34;2.15;-0.23;0.82;-0.31;28.56;-20.23;29.75
8260;-4.19;-8.53;2.06;-0.23;0.82;-0.31;30.87;-22.33;30.87
8269;-4.24;-8.69;1.72;-0.23;0.82;-0.31;35.63;-26.95;35.63
8277;-4.34;-9.01;1.69;-0.23;0.82;-0.31;41.58;-32.55;40.81
8286;-4.39;-8.94;1.57;-0.23;0.82;-0.31;48.79;-38.15;46.83
8295;-4.39;-8.96;1.54;-0.23;0.83;-0.32;54.60;-43.89;51.38
8304;-4.47;-8.82;1.70;-0.23;0.83;-0.32;56.63;-47.95;51.73
8312;-4.43;-8.71;1.82;-0.23;0.83;-0.32;53.27;-48.16;49.07
8321;-4.45;-8.80;1.97;-0.22;0.83;-0.30;44.73;-43.96;44.17
8330;-4.47;-8.61;1.88;-0.22;0.83;-0.30;37.10;-38.50;38.29
8339;-4.35;-8.84;1.72;-0.22;0.83;-0.30;30.80;-33.95;33.04
8348;-4.23;-8.95;1.53;-0.22;0.83;-0.28;26.60;-30.87;31.64
8356;-4.22;-9.20;1.41;-0.22;0.83;-0.28;23.38;-29.75;33.11
8365;-4.31;-9.44;1.29;-0.22;0.83;-0.28;23.73;-29.61;35.63
8374;-4.24;-9.32;1.18;-0.22;0.85;-0.28;25.48;-31.85;37.24
8383;-4.20;-9.30;0.91;-0.22;0.85;-0.28;28.42;-35.28;37.52
8391;-4.32;-9.22;0.93;-0.22;0.85;-0.28;35.00;-38.99;37.31
8400;-4.38;-9.32;1.05;-0.21;0.86;-0.26;39.97;-42.42;37.31
8409;-4.17;-9.26;1.05;-0.21;0.86;-0.26;42.91;-43.47;37.45
8418;-4.11;-9.24;1.05;-0.21;0.86;-0.25;41.86;-40.60;35.42
8426;-4.03;-9.22;1.23;-0.22;0.86;-0.25;37.31;-35.91;34.44
8435;-3.88;-9.27;1.04;-0.22;0.86;-0.25;32.55;-31.01;32.90
8444;-3.83;-9.11;0.83;-0.21;0.86;-0.25;28.00;-27.09;30.59
8453;-3.62;-9.20;0.72;-0.21;0.86;-0.25;21.91;-23.59;28.35
8461;-3.68;-9.22;0.63;-0.21;0.86;-0.25;17.64;-21.42;27.44
8470;-3.85;-9.23;0.49;-0.21;0.87;-0.25;15.75;-21.63;26.53
8479;-3.56;-9.49;0.44;-0.21;0.87;-0.25;15.12;-20.51;27.51
8488;-3.43;-9.31;0.48;-0.21;0.87;-0.25;19.18;-20.44;29.19
8496;-3.60;-9.18;0.19;-0.20;0.87;-0.25;24.99;-20.30;33.04
8505;-3.63;-9.21;0.19;-0.20;0.87;-0.25;33.46;-23.17;34.02
8514;-1.95;-9.04;0.32;-0.20;0.87;-0.25;39.41;-25.41;34.37
8523;-3.07;-9.13;0.30;-0.20;0.88;-0.24;40.46;-27.09;34.16
8531;-2.72;-9.15;0.17;-0.20;0.88;-0.24;39.62;-22.75;32.34
8540;-2.84;-9.04;0.14;-0.20;0.88;-0.24;31.08;-17.29;28.84
8549;-2.94;-9.04;0.22;-0.20;0.89;-0.24;20.23;-12.18;21.49
8558;-2.95;-9.04;0.25;-0.20;0.89;-0.24;7.70;-6.37;14.35
8566;-3.06;-9.22;0.24;-0.20;0.89;-0.24;-2.66;-0.84;6.65
8575;-3.17;-9.38;0.19;-0.20;0.88;-0.22;-9.45;1.47;2.45
8584;-3.29;-9.55;0.14;-0.20;0.88;-0.22;-11.13;0.98;1.82
8593;-3.26;-9.78;0.13;-0.20;0.88;-0.22;-9.38;-0.98;3.85
8601;-3.27;-9.81;0.22;-0.19;0.88;-0.23;-3.85;-3.85;7.35
8610;-3.30;-9.80;0.32;-0.19;0.88;-0.23;6.86;-8.26;10.92
8619;-3.24;-9.86;0.52;-0.19;0.88;-0.23;16.17;-10.29;13.44
8628;-3.18;-9.68;0.83;-0.20;0.89;-0.23;19.60;-9.94;13.79
8636;-3.26;-9.53;0.85;-0.20;0.89;-0.23;18.06;-6.93;11.48
8645;-3.29;-9.50;0.90;-0.20;0.89;-0.23;12.46;-3.92;6.79
8654;-3.35;-9.38;1.03;-0.20;0.90;-0.22;6.23;0.56;1.82
8663;-3.40;-9.40;0.88;-0.20;0.90;-0.22;0.14;5.46;-2.45
8671;-3.35;-9.42;0.80;-0.20;0.90;-0.22;-3.22;8.68;-5.53
8680;-3.19;-9.69;0.67;-0.19;0.90;-0.23;-5.11;9.73;-6.65
8689;-3.16;-9.93;0.52;-0.19;0.90;-0.23;-4.41;8.75;-5.25
8698;-3.23;-10.08;0.51;-0.19;0.90;-0.23;-0.91;5.88;-1.61
8706;-3.17;-9.97;0.55;-0.19;0.90;-0.23;3.64;1.89;1.61
8715;-3.27;-9.95;0.46;-0.19;0.90;-0.23;7.77;-0.14;1.82
8724;-3.34;-9.94;0.53;-0.19;0.90;-0.23;8.61;0.70;1.19
8733;-3.37;-9.81;0.46;-0.19;0.89;-0.22;6.79;3.15;-0.77
8741;-3.56;-9.87;0.38;-0.19;0.89;-0.22;4.34;5.04;-3.29
8750;-3.51;-9.99;0.26;-0.19;0.89;-0.22;2.24;7.07;-4.48
8759;-3.42;-10.03;0.13;-0.20;0.90;-0.23;0.14;7.98;-5.04
8768;-3.45;-10.15;0.10;-0.20;0.90;-0.23;-2.38;8.68;-5.39
8776;-3.44;-10.14;0.15;-0.20;0.90;-0.23;-5.18;9.87;-5.74
8785;-3.37;-10.17;0.07;-0.20;0.89;-0.23;-8.61;11.34;-6.79
8794;-3.32;-10.32;0.04;-0.20;0.89;-0.23;-10.64;11.48;-5.95
8803;-3.38;-10.24;0.02;-0.20;0.90;-0.24;-10.01;10.15;-4.20
8811;-3.35;-10.23;-0.13;-0.20;0.90;-0.24;-7.07;8.19;-1.12
8820;-3.39;-10.20;-0.05;-0.20;0.90;-0.24;-2.59;5.46;1.68
8829;-3.30;-10.10;0.05;-0.19;0.89;-0.22;1.12;3.29;3.71
8838;-3.14;-10.06;0.02;-0.19;0.89;-0.22;2.45;2.94;4.48
8846;-3.06;-10.01;0.08;-0.19;0.89;-0.22;0.49;4.13;4.06
8855;-2.99;-10.09;0.05;-0.19;0.90;-0.23;-3.08;4.76;3.15
8864;-2.96;-9.93;0.19;-0.19;0.90;-0.23;-5.25;6.09;2.73
8873;-2.99;-10.01;0.06;-0.19;0.90;-0.23;-5.74;6.93;3.50
8881;-2.99;-9.99;0.15;-0.19;0.89;-0.22;-5.74;8.75;4.27
8890;-2.96;-9.88;0.04;-0.19;0.89;-0.22;-5.25;8.33;6.09
8899;-2.81;-9.83;0.04;-0.19;0.89;-0.22;-3.43;8.26;8.05
8908;-2.79;-9.66;-0.11;-0.20;0.89;-0.24;-0.35;7.77;10.50
8916;-2.74;-9.71;-0.01;-0.20;0.89;-0.24;2.87;7.14;12.04
8925;-2.51;-9.58;-0.08;-0.20;0.89;-0.24;5.60;6.02;13.16
8934;-2.45;-9.38;0.03;-0.19;0.89;-0.24;4.97;5.74;13.58
8943;-2.45;-9.22;0.07;-0.19;0.89;-0.24;3.08;5.25;11.62
8951;-2.31;-9.24;0.04;-0.19;0.89;-0.24;1.12;5.95;8.54
8960;-2.38;-9.18;0.09;-0.18;0.89;-0.23;-0.63;7.00;4.69
8969;-1.92;-9.35;0.12;-0.18;0.89;-0.23;-1.89;7.28;2.03
8978;-2.02;-9.35;0.06;-0.18;0.89;-0.23;-2.03;7.21;1.26
8986;-2.19;-9.39;0.11;-0.18;0.89;-0.24;0.28;10.50;-0.84
8995;-2.30;-9.48;-0.02;-0.18;0.89;-0.24;1.54;7.91;-1.12
9004;-2.26;-9.55;-0.07;-0.18;0.89;-0.24;1.12;2.94;0.91
9013;-2.35;-9.69;0.06;-0.18;0.89;-0.23;1.33;-0.14;3.43
9021;-2.40;-9.61;0.09;-0.18;0.89;-0.23;0.98;-2.80;4.27
9030;-2.49;-9.42;0.19;-0.18;0.89;-0.23;-0.14;-3.15;3.92
9039;-2.31;-9.37;0.29;-0.19;0.88;-0.23;-0.84;-2.24;1.68
9048;-2.25;-9.18;0.33;-0.19;0.88;-0.23;-2.38;-0.91;-2.10
9056;-2.46;-9.27;0.33;-0.19;0.88;-0.23;-4.20;0.49;-5.46
9065;-2.45;-9.41;0.25;-0.18;0.89;-0.23;-5.88;0.91;-8.47
9074;-2.48;-9.54;0.35;-0.18;0.89;-0.23;-8.05;0.77;-9.03
9083;-2.46;-9.69;0.29;-0.18;0.89;-0.23;-9.38;1.12;-7.14
9091;-2.55;-9.68;0.18;-0.18;0.89;-0.24;-9.45;-0.07;-5.11
9100;-2.66;-9.63;0.27;-0.18;0.89;-0.24;-6.72;-2.66;-2.80
9109;-2.49;-9.46;0.31;-0.18;0.89;-0.24;-2.45;-4.62;1.19
9118;-2.56;-9.35;0.45;-0.19;0.89;-0.24;1.40;-5.25;3.29
9126;-2.67;-9.12;0.45;-0.19;0.89;-0.24;2.87;-5.81;1.82
9135;-2.69;-9.23;0.37;-0.19;0.89;-0.24;2.03;-5.39;0.42
9144;-2.71;-9.19;0.36;-0.18;0.88;-0.24;0.63;-4.76;-1.40
9153;-2.61;-9.26;0.24;-0.18;0.88;-0.24;-0.98;-3.92;-2.73
9161;-2.80;-9.39;0.32;-0.18;0.88;-0.24;-0.77;-3.92;-3.08
9170;-2.83;-9.36;0.23;-0.19;0.89;-0.24;1.33;-3.71;-2.38
9179;-2.92;-9.49;-0.04;-0.19;0.89;-0.24;3.85;-3.99;-0.56
9188;-2.93;-9.49;0.00;-0.18;0.90;-0.23;6.86;-4.34;1.47
9197;-2.91;-9.53;-0.11;-0.18;0.90;-0.23;8.19;-5.18;2.94
9205;-2.93;-9.53;-0.10;-0.18;0.90;-0.23;7.00;-5.60;3.08
9214;-2.93;-9.40;-0.20;-0.19;0.89;-0.23;4.27;-4.97;1.33
9223;-3.17;-9.46;-0.04;-0.19;0.89;-0.23;0.98;-5.04;-0.63
9232;-3.14;-9.55;-0.12;-0.19;0.89;-0.23;-1.19;-5.25;-1.89
9240;-3.18;-9.52;-0.09;-0.19;0.90;-0.25;-2.03;-6.23;-2.59
9249;-3.09;-9.54;0.06;-0.19;0.90;-0.25;-1.47;-6.51;-2.87
9258;-3.14;-9.64;0.05;-0.19;0.90;-0.25;-0.98;-5.88;-2.94
9267;-3.22;-9.56;0.13;-0.19;0.89;-0.24;0.35;-4.27;-3.36
9275;-3.16;-9.56;0.00;-0.19;0.89;-0.24;0.98;-2.66;-2.52
9284;-3.16;-9.63;0.07;-0.19;0.89;-0.24;1.33;-1.26;-2.59
9293;-3.16;-9.74;-0.03;-0.20;0.88;-0.24;2.10;-0.49;-1.54
9301;-3.22;-9.77;-0.09;-0.20;0.88;-0.24;3.78;-1.89;-0.14
9310;-3.16;-9.73;-0.01;-0.20;0.88;-0.24;4.13;-3.50;0.56
9319;-3.09;-9.59;0.02;-0.19;0.88;-0.23;3.92;-4.20;-0.14
9328;-3.17;-9.51;-0.02;-0.19;0.88;-0.23;3.08;-4.55;-1.47
9337;-3.09;-9.64;-0.03;-0.19;0.88;-0.23;1.40;-4.41;-3.08
9345;-3.21;-9.67;0.18;-0.19;0.89;-0.23;-1.05;-4.20;-4.41
9354;-2.99;-9.82;0.16;-0.19;0.89;-0.23;-2.94;-2.80;-5.32
9363;-3.10;-9.95;0.31;-0.19;0.89;-0.23;-2.73;-2.24;-4.62
9372;-3.08;-9.98;0.24;-0.19;0.89;-0.23;-1.26;-1.82;-1.68
9380;-3.01;-10.06;0.34;-0.19;0.89;-0.23;1.26;-1.89;0.70
9389;-3.04;-9.88;0.19;-0.19;0.89;-0.23;3.22;-1.54;3.01
9398;-3.07;-9.78;0.27;-0.19;0.88;-0.24;4.34;-1.19;4.34
9407;-3.02;-9.85;0.32;-0.19;0.88;-0.24;3.99;0.07;3.78
9415;-3.04;-9.72;0.32;-0.19;0.88;-0.24;1.05;0.84;2.38
9424;-3.01;-9.66;0.19;-0.20;0.89;-0.22;-2.94;1.12;0.21
9433;-2.94;-9.80;0.20;-0.20;0.89;-0.22;-5.11;1.75;-2.31
9442;-2.99;-9.83;0.13;-0.20;0.89;-0.22;-5.88;0.77;-3.57
9450;-2.98;-9.86;0.27;-0.20;0.89;-0.22;-5.60;-0.14;-3.64
9459;-3.03;-9.93;0.35;-0.20;0.89;-0.22;-4.55;-0.70;-3.22
9468;-2.95;-9.90;0.33;-0.20;0.89;-0.22;-3.36;0.35;-1.89
9476;-2.90;-9.99;0.34;-0.19;0.89;-0.23;-2.52;1.40;-1.12
9485;-2.91;-9.86;0.29;-0.19;0.89;-0.23;-2.24;2.73;-0.84
9494;-2.77;-9.98;0.26;-0.19;0.89;-0.23;-2.31;2.87;-1.33
9503;-2.71;-9.96;0.23;-0.19;0.88;-0.23;-3.43;2.94;-1.82
9511;-2.69;-9.95;0.21;-0.19;0.88;-0.23;-4.55;2.94;-2.52
9520;-2.77;-9.97;0.27;-0.19;0.88;-0.23;-6.65;2.87;-3.64
9529;-2.81;-9.96;0.20;-0.19;0.89;-0.24;-8.47;2.59;-4.76
9538;-2.81;-10.01;0.22;-0.19;0.89;-0.24;-9.73;1.89;-4.83
9547;-2.79;-10.01;0.20;-0.19;0.89;-0.24;-10.29;0.70;-4.41
9555;-2.78;-9.92;0.33;-0.19;0.88;-0.24;-9.66;-0.63;-4.34
9564;-2.76;-9.93;0.37;-0.19;0.88;-0.24;-9.45;-0.77;-4.13
9573;-2.73;-9.85;0.37;-0.19;0.89;-0.23;-9.10;-0.56;-3.92
9582;-2.65;-9.72;0.32;-0.19;0.89;-0.23;-8.82;-1.40;-3.64
9590;-2.69;-9.71;0.37;-0.19;0.89;-0.23;-7.35;-1.54;-3.08
9599;-2.70;-9.58;0.42;-0.20;0.89;-0.23;-6.09;-2.24;-3.15
9608;-2.81;-9.52;0.41;-0.20;0.89;-0.23;-5.60;-2.38;-3.99
9617;-2.73;-9.44;0.36;-0.20;0.89;-0.23;-5.46;-2.10;-5.11
9625;-2.73;-9.25;0.34;-0.19;0.88;-0.24;-5.25;-2.38;-7.07
9634;-2.72;-9.27;0.33;-0.19;0.88;-0.24;-5.74;-3.22;-9.38
9643;-2.77;-9.17;0.41;-0.19;0.88;-0.24;-5.53;-3.99;-11.76
9652;-2.74;-9.27;0.59;-0.19;0.89;-0.23;-5.60;-4.41;-13.23
9660;-2.76;-9.38;0.60;-0.19;0.89;-0.23;-6.23;-3.29;-12.88
9669;-2.73;-9.25;0.72;-0.19;0.89;-0.23;-7.77;-1.33;-13.02
9678;-2.67;-9.12;0.58;-0.20;0.88;-0.24;-8.96;0.42;-13.58
9687;-2.75;-9.05;0.63;-0.20;0.88;-0.24;-9.17;1.89;-14.56
9695;-2.75;-8.99;0.43;-0.20;0.88;-0.24;-7.49;2.24;-15.05
9704;-2.63;-8.99;0.39;-0.20;0.89;-0.24;-4.83;2.38;-15.33
9713;-2.98;-8.84;0.32;-0.20;0.89;-0.24;-3.43;1.96;-16.80
9722;-2.98;-8.81;0.36;-0.20;0.89;-0.24;-3.15;1.47;-18.90
9730;-3.25;-8.90;0.43;-0.21;0.88;-0.23;-4.83;3.01;-22.47
9739;-3.17;-9.07;0.36;-0.21;0.88;-0.23;-8.68;4.83;-24.99
9748;-3.39;-9.38;0.43;-0.21;0.88;-0.23;-11.48;6.58;-25.48
9757;-3.42;-9.34;0.49;-0.21;0.88;-0.24;-13.16;7.28;-24.29
9765;-3.29;-9.49;0.50;-0.21;0.88;-0.24;-13.72;7.14;-23.31
9774;-3.34;-9.45;0.61;-0.21;0.88;-0.24;-13.86;6.79;-22.75
9783;-3.46;-9.53;0.78;-0.22;0.87;-0.25;-15.33;7.91;-23.03
9792;-3.80;-9.43;0.62;-0.22;0.87;-0.25;-15.68;8.33;-22.75
9800;-3.69;-9.56;0.89;-0.22;0.87;-0.25;-15.33;8.40;-22.40
9809;-3.93;-9.48;0.75;-0.21;0.87;-0.24;-16.10;9.31;-22.19
9818;-3.96;-9.46;0.85;-0.21;0.87;-0.24;-17.22;9.38;-22.47
9827;-3.94;-9.48;0.87;-0.21;0.87;-0.24;-18.13;8.82;-23.03
9835;-3.91;-9.58;1.13;-0.22;0.86;-0.24;-18.13;9.10;-22.75
9844;-3.77;-9.64;1.08;-0.22;0.86;-0.24;-16.24;8.33;-20.86
9853;-3.80;-9.73;1.00;-0.22;0.86;-0.24;-11.27;7.28;-17.71
9862;-3.93;-9.72;0.70;-0.22;0.87;-0.25;-4.62;4.83;-13.93
9870;-3.78;-9.72;0.82;-0.22;0.87;-0.25;0.91;2.73;-10.08
9879;-3.75;-9.61;0.72;-0.22;0.87;-0.25;2.80;2.87;-8.19
9888;-3.72;-9.45;0.64;-0.23;0.86;-0.25;1.96;3.43;-8.12
9897;-3.82;-9.56;0.59;-0.23;0.86;-0.25;-0.35;4.41;-9.17
9905;-3.77;-9.35;0.40;-0.23;0.86;-0.25;-3.64;3.64;-10.50
9914;-3.88;-9.46;0.47;-0.22;0.87;-0.26;-6.44;4.62;-12.60
9923;-3.98;-9.31;0.36;-0.22;0.87;-0.26;-9.03;4.13;-14.35
9932;-4.03;-9.46;0.39;-0.22;0.87;-0.26;-10.01;3.99;-15.40
9940;-4.07;-9.45;0.51;-0.23;0.86;-0.26;-9.94;4.55;-14.84
9949;-4.08;-9.63;0.58;-0.23;0.86;-0.26;-11.62;6.37;-13.44
9958;-4.16;-9.63;0.45;-0.23;0.86;-0.24;-11.69;7.21;-12.39
9967;-4.13;-9.64;0.32;-0.23;0.86;-0.24;-9.59;6.37;-11.06
9975;-3.99;-9.68;0.43;-0.23;0.86;-0.24;-7.28;5.11;-8.89
9984;-4.03;-9.61;0.35;-0.22;0.86;-0.26;-5.74;3.57;-7.84
9993;-4.04;-9.40;0.52;-0.22;0.86;-0.26;-6.72;3.99;-8.12
10002;-4.17;-9.31;0.47;-0.22;0.86;-0.26;-9.52;4.90;-10.29
10010;-4.12;-9.24;0.52;-0.23;0.85;-0.25;-14.14;6.79;-14.56
10019;-4.21;-9.30;0.52;-0.23;0.85;-0.25;-19.11;8.05;-18.06
10028;-4.03;-9.31;0.56;-0.23;0.85;-0.25;-23.59;9.31;-19.67
10037;-4.16;-9.25;0.73;-0.23;0.86;-0.27;-25.69;9.80;-20.09
10046;-3.91;-9.28;0.94;-0.23;0.86;-0.27;-26.46;10.85;-19.88
10054;-3.96;-9.15;1.10;-0.23;0.86;-0.27;-26.11;12.46;-19.88
10063;-4.06;-9.00;1.20;-0.23;0.85;-0.26;-26.46;13.58;-20.23
10072;-4.04;-9.00;1.14;-0.23;0.85;-0.26;-27.37;13.72;-20.93
10081;-3.96;-8.94;1.26;-0.23;0.85;-0.26;-26.11;13.30;-21.28
10089;-4.19;-8.82;1.34;-0.24;0.86;-0.27;-25.13;12.95;-22.12
10098;-4.42;-8.73;1.21;-0.24;0.86;-0.27;-24.36;13.30;-23.45
10107;-4.44;-8.73;1.31;-0.24;0.86;-0.27;-26.11;12.81;-25.48
10116;-4.70;-8.77;1.27;-0.24;0.85;-0.27;-27.93;13.58;-28.00
10125;-4.69;-8.88;1.47;-0.24;0.85;-0.27;-33.11;14.00;-29.75
10133;-4.65;-8.81;1.50;-0.24;0.85;-0.27;-37.94;14.98;-31.15
10142;-4.78;-8.86;1.62;-0.24;0.85;-0.28;-40.46;16.45;-32.55
10151;-4.92;-8.83;1.65;-0.24;0.85;-0.28;-40.88;16.94;-32.69
10160;-5.05;-9.04;1.51;-0.24;0.85;-0.28;-37.52;16.73;-30.66
10168;-5.07;-9.03;1.38;-0.25;0.83;-0.30;-32.13;14.28;-27.44
10177;-5.07;-9.20;1.28;-0.25;0.83;-0.30;-27.93;10.99;-23.31
10186;-5.27;-9.06;1.28;-0.25;0.83;-0.30;-23.66;6.51;-21.21
10195;-5.20;-8.95;1.37;-0.24;0.83;-0.30;-20.65;3.85;-19.32
10203;-5.26;-8.89;1.47;-0.24;0.83;-0.30;-21.91;2.73;-20.44
10212;-5.51;-8.75;1.53;-0.24;0.83;-0.30;-26.60;2.87;-24.36
10221;-5.43;-8.76;1.69;-0.26;0.82;-0.29;-33.18;5.18;-28.07
10230;-5.55;-8.84;2.02;-0.26;0.82;-0.29;-41.65;10.50;-30.59
10239;-5.48;-8.86;2.03;-0.26;0.82;-0.29;-50.33;16.59;-32.20
10247;-5.46;-8.91;1.96;-0.25;0.82;-0.31;-55.02;21.91;-31.92
10256;-5.71;-8.85;1.91;-0.25;0.82;-0.31;-55.72;22.82;-29.68
10265;-5.55;-8.77;1.97;-0.25;0.82;-0.31;-51.66;18.69;-26.18
10273;-5.33;-8.77;1.95;-0.26;0.81;-0.32;-42.63;15.19;-21.77
10282;-5.54;-8.46;2.01;-0.26;0.81;-0.32;-35.21;11.97;-16.87
10291;-5.48;-8.45;2.12;-0.26;0.81;-0.32;-30.59;10.08;-14.42
10300;-5.53;-8.15;2.30;-0.25;0.79;-0.32;-30.38;10.29;-14.77
10309;-5.58;-7.99;2.53;-0.25;0.79;-0.32;-35.91;12.53;-17.92
10317;-5.54;-7.87;2.80;-0.26;0.79;-0.32;-45.15;16.45;-23.03
10326;-5.47;-7.71;2.99;-0.26;0.79;-0.32;-56.70;23.52;-29.61
10335;-5.51;-7.68;3.06;-0.26;0.79;-0.32;-69.09;31.29;-35.77
10344;-5.38;-7.69;2.74;-0.26;0.78;-0.32;-74.62;34.37;-38.08
10352;-5.30;-7.76;2.73;-0.26;0.78;-0.32;-68.11;31.78;-35.14
10361;-5.33;-7.81;2.68;-0.26;0.78;-0.32;-53.90;26.95;-29.33
10370;-5.71;-7.63;2.66;-0.26;0.76;-0.33;-39.55;18.13;-23.87
10379;-5.46;-7.49;2.90;-0.26;0.76;-0.33;-31.15;11.34;-20.02
10388;-5.48;-7.51;3.15;-0.26;0.76;-0.33;-27.86;9.31;-17.29
10396;-5.55;-7.29;3.44;-0.25;0.75;-0.33;-29.75;9.66;-19.95
10405;-5.45;-7.20;3.55;-0.25;0.75;-0.33;-36.75;12.95;-24.29
10414;-5.49;-6.97;3.70;-0.25;0.75;-0.33;-46.69;18.41;-31.43
10422;-5.68;-6.94;3.88;-0.25;0.75;-0.36;-57.89;24.22;-38.92
10431;-5.69;-7.05;4.08;-0.25;0.75;-0.36;-69.09;30.24;-46.13
10440;-5.56;-7.34;3.69;-0.25;0.75;-0.36;-71.05;32.27;-46.41
10449;-5.67;-7.41;3.60;-0.25;0.74;-0.35;-61.11;29.61;-41.16
10458;-5.30;-7.34;3.50;-0.25;0.74;-0.35;-46.55;24.92;-37.59
10466;-6.05;-7.15;3.88;-0.25;0.74;-0.35;-38.50;16.94;-30.24
10475;-5.67;-7.03;4.07;-0.26;0.73;-0.36;-33.67;13.16;-27.02
10484;-5.84;-6.96;4.31;-0.26;0.73;-0.36;-30.59;12.39;-26.18
10493;-5.93;-6.67;4.38;-0.26;0.73;-0.36;-32.83;13.51;-27.65
10501;-5.70;-6.55;4.60;-0.26;0.73;-0.36;-37.66;16.66;-31.57
10510;-5.93;-6.37;4.76;-0.26;0.73;-0.36;-45.15;23.24;-36.68
10519;-5.93;-6.36;4.90;-0.26;0.73;-0.36;-57.89;32.27;-43.26
10528;-5.81;-6.40;5.08;-0.26;0.71;-0.38;-71.54;43.12;-49.77
10536;-5.84;-6.49;4.57;-0.26;0.71;-0.38;-80.15;47.46;-52.99
10545;-5.78;-6.68;4.17;-0.26;0.71;-0.38;-75.81;43.33;-50.61
10554;-5.66;-6.73;4.03;-0.26;0.69;-0.39;-59.22;37.52;-44.94
10563;-6.22;-6.47;4.34;-0.26;0.69;-0.39;-46.83;25.55;-35.56
10571;-5.94;-6.41;4.59;-0.26;0.69;-0.39;-37.38;17.57;-31.29
10580;-5.99;-6.18;4.89;-0.25;0.68;-0.39;-36.75;18.06;-30.38
10589;-6.14;-5.87;5.15;-0.25;0.68;-0.39;-44.17;22.40;-34.51
10598;-6.09;-5.69;5.36;-0.25;0.68;-0.39;-55.79;27.79;-41.51
10606;-6.23;-5.43;5.54;-0.26;0.67;-0.40;-69.37;36.40;-51.73
10615;-6.14;-5.48;5.74;-0.26;0.67;-0.40;-86.45;46.55;-60.83
10624;-6.06;-5.64;5.59;-0.26;0.67;-0.40;-98.84;53.20;-65.66
10633;-6.06;-5.84;5.30;-0.25;0.66;-0.40;-96.74;51.31;-64.75
10641;-6.15;-5.98;4.94;-0.25;0.66;-0.40;-81.06;42.91;-53.69
10650;-6.21;-5.88;4.91;-0.25;0.66;-0.42;-59.22;26.11;-40.11
10659;-6.10;-5.79;5.05;-0.25;0.63;-0.42;-31.92;11.90;-28.84
10668;-6.20;-5.42;5.51;-0.25;0.63;-0.42;-16.24;4.76;-21.56
10677;-6.22;-5.06;6.09;-0.25;0.63;-0.42;-10.92;2.24;-18.76
10685;-6.20;-4.97;6.17;-0.25;0.63;-0.42;-13.93;7.14;-22.75
10694;-6.30;-4.69;6.30;-0.25;0.63;-0.42;-22.68;14.56;-29.12
10703;-6.29;-4.57;6.32;-0.25;0.62;-0.41;-33.25;22.75;-38.36
10712;-6.31;-4.70;6.30;-0.25;0.62;-0.41;-45.22;30.24;-47.46
10720;-6.25;-4.64;6.35;-0.25;0.62;-0.41;-60.13;39.27;-55.72
10729;-6.20;-5.16;6.09;-0.24;0.61;-0.42;-72.87;43.61;-60.06
10738;-6.10;-5.26;5.52;-0.24;0.61;-0.42;-68.04;37.45;-55.65
10747;-6.08;-5.32;5.48;-0.24;0.61;-0.42;-50.33;27.16;-42.63
10755;-6.18;-5.28;5.46;-0.24;0.59;-0.42;-29.05;13.30;-32.27
10764;-6.23;-5.15;5.72;-0.24;0.59;-0.42;-8.96;2.10;-22.75
10773;-6.19;-5.02;6.15;-0.24;0.59;-0.42;0.63;-3.01;-17.71
10782;-6.30;-4.71;6.37;-0.24;0.58;-0.43;0.70;-3.71;-17.50
10790;-6.21;-4.54;6.58;-0.24;0.58;-0.43;-5.18;-0.28;-21.28
10799;-6.17;-4.39;6.60;-0.24;0.58;-0.43;-13.58;5.74;-27.72
10808;-6.14;-4.35;6.78;-0.24;0.59;-0.42;-22.96;12.25;-33.74
10817;-6.15;-4.06;6.70;-0.24;0.59;-0.42;-32.69;19.11;-41.23
10825;-6.17;-4.04;6.70;-0.24;0.59;-0.42;-43.33;26.46;-48.02
10834;-6.20;-4.29;6.37;-0.23;0.58;-0.42;-52.71;31.36;-52.57
10843;-6.14;-4.51;6.20;-0.23;0.58;-0.42;-54.39;29.40;-51.31
10852;-6.04;-4.62;5.99;-0.23;0.58;-0.42;-47.04;22.61;-43.68
10860;-6.25;-4.72;6.11;-0.23;0.57;-0.45;-37.66;14.49;-36.96
10869;-6.37;-4.53;6.39;-0.23;0.57;-0.45;-29.19;10.15;-32.90
10878;-6.52;-4.49;6.67;-0.23;0.57;-0.45;-28.00;8.89;-30.31
10887;-6.55;-4.49;6.65;-0.23;0.55;-0.45;-28.07;8.96;-28.28
10896;-6.50;-4.35;6.73;-0.23;0.55;-0.45;-27.16;9.80;-26.67
10904;-6.57;-4.14;6.75;-0.23;0.55;-0.45;-27.23;11.76;-27.30
10913;-6.54;-3.91;6.78;-0.23;0.54;-0.44;-27.16;12.95;-28.00
10922;-6.47;-3.70;6.82;-0.23;0.54;-0.44;-27.58;14.70;-30.03
10931;-6.47;-3.50;7.01;-0.23;0.54;-0.44;-30.80;17.01;-32.90
10939;-6.47;-3.34;7.16;-0.23;0.54;-0.43;-37.52;21.56;-36.82
10948;-6.41;-3.01;7.26;-0.23;0.54;-0.43;-46.76;27.72;-43.33
10957;-6.20;-2.89;7.38;-0.23;0.54;-0.43;-59.01;35.00;-51.03
10966;-6.15;-2.84;7.22;-0.22;0.52;-0.43;-72.24;40.25;-55.16
10975;-6.04;-3.10;6.68;-0.22;0.52;-0.43;-73.43;40.74;-55.30
10983;-6.15;-3.12;6.48;-0.22;0.52;-0.43;-64.33;36.26;-50.33
10992;-6.12;-3.22;6.45;-0.21;0.51;-0.45;-52.22;28.28;-43.47
11001;-6.21;-3.08;6.48;-0.21;0.51;-0.45;-40.74;22.61;-37.66
11010;-6.39;-3.00;6.57;-0.21;0.49;-0.45;-32.97;17.57;-32.13
11018;-6.45;-2.73;6.80;-0.21;0.49;-0.45;-30.03;13.72;-28.35
11027;-6.65;-2.43;7.16;-0.21;0.49;-0.45;-31.43;13.09;-29.40
11036;-6.57;-2.23;7.39;-0.20;0.48;-0.44;-37.52;15.89;-33.60
11045;-6.50;-2.05;7.65;-0.20;0.48;-0.44;-45.71;21.00;-37.94
11053;-6.35;-1.79;7.75;-0.20;0.48;-0.44;-56.63;27.09;-42.70
11062;-6.12;-1.69;7.66;-0.21;0.46;-0.43;-68.46;32.69;-46.90
11071;-5.96;-1.49;7.43;-0.21;0.46;-0.43;-78.54;37.10;-50.54
11080;-5.92;-1.22;7.37;-0.21;0.46;-0.43;-83.44;38.92;-54.18
11089;-5.97;-1.51;7.17;-0.20;0.45;-0.44;-84.77;37.87;-54.39
11097;-5.85;-1.55;6.93;-0.20;0.45;-0.44;-80.36;31.99;-51.03
11106;-5.89;-1.73;7.06;-0.20;0.45;-0.44;-72.66;25.69;-44.59
11115;-6.08;-1.56;7.01;-0.18;0.42;-0.45;-61.81;18.69;-37.45
11124;-6.17;-1.57;7.37;-0.18;0.42;-0.45;-50.54;11.48;-31.36
11133;-6.15;-1.38;7.51;-0.18;0.42;-0.45;-40.46;7.35;-26.04
11141;-6.09;-1.12;7.80;-0.19;0.43;-0.46;-34.44;5.46;-22.19
11150;-6.08;-1.05;7.85;-0.19;0.43;-0.46;-31.15;5.81;-19.53
11159;-6.05;-0.80;7.70;-0.19;0.43;-0.46;-28.98;7.56;-19.67
11168;-5.98;-0.56;7.65;-0.18;0.41;-0.45;-29.26;7.84;-22.40
11176;-5.90;-0.58;7.61;-0.18;0.41;-0.45;-33.88;8.68;-27.79
11185;-5.89;-0.55;7.57;-0.18;0.41;-0.45;-43.75;8.89;-33.81
11194;-5.79;-0.75;7.49;-0.18;0.41;-0.44;-54.88;10.29;-39.06
11203;-5.69;-0.69;7.40;-0.18;0.41;-0.44;-65.38;10.85;-39.27
11211;-5.56;-0.73;7.57;-0.18;0.41;-0.44;-71.89;11.06;-38.92
11220;-5.79;-0.63;7.43;-0.17;0.38;-0.44;-72.31;8.68;-36.82
11229;-5.95;-0.62;7.34;-0.17;0.38;-0.44;-68.88;3.99;-34.65
11238;-5.98;-0.69;7.47;-0.17;0.38;-0.44;-62.58;-0.91;-30.03
11246;-5.94;-0.55;7.65;-0.18;0.38;-0.44;-51.38;-5.46;-24.15
11255;-5.78;-0.27;7.79;-0.18;0.38;-0.44;-34.79;-8.26;-0.70
11264;-5.93;-0.18;8.19;-0.18;0.38;-0.44;-19.67;-8.68;-13.09
11273;-5.99;-0.08;8.33;-0.18;0.36;-0.45;-6.93;-7.63;-9.52
11281;-5.98;-0.01;8.40;-0.18;0.36;-0.45;-2.66;-4.69;-7.91
11290;-6.02;0.23;8.26;-0.18;0.36;-0.45;-3.71;-2.80;-8.26
11299;-5.76;0.70;8.26;-0.16;0.36;-0.45;-9.24;-2.10;-8.96
11308;-5.41;0.71;8.09;-0.16;0.36;-0.45;-13.72;1.33;-12.95
11316;-5.53;1.02;7.87;-0.16;0.36;-0.45;-21.07;2.94;-17.99
11325;-5.32;1.00;8.03;-0.17;0.35;-0.45;-32.06;5.25;-26.74
11334;-5.69;1.07;8.14;-0.17;0.35;-0.45;-47.25;11.27;-37.03
11343;-5.96;1.21;8.00;-0.17;0.35;-0.45;-65.31;14.07;-46.34
11352;-5.83;0.59;7.70;-0.17;0.34;-0.44;-76.93;14.07;-51.10
11360;-5.89;0.08;7.42;-0.17;0.34;-0.44;-72.59;11.20;-46.41
11369;-5.86;-0.01;7.19;-0.17;0.33;-0.43;-54.18;1.96;-35.14
11378;-6.04;0.13;7.23;-0.17;0.33;-0.43;-26.60;-5.95;-22.68
11387;-6.24;0.19;7.74;-0.17;0.33;-0.43;-7.49;-11.62;-12.81
11395;-6.23;0.38;8.00;-0.17;0.32;-0.43;4.97;-13.44;-5.67
11404;-6.34;0.62;8.24;-0.17;0.32;-0.43;10.85;-12.18;-5.25
11413;-6.17;0.63;8.33;-0.17;0.32;-0.43;8.40;-9.17;-6.02
11422;-5.94;0.75;8.00;-0.16;0.32;-0.43;4.27;-5.60;-7.00
11430;-5.55;0.78;7.81;-0.16;0.32;-0.43;0.77;-1.89;-11.06
11439;-5.61;0.85;7.65;-0.16;0.32;-0.43;-7.63;3.22;-16.45
11448;-5.64;1.16;7.49;-0.17;0.33;-0.44;-20.44;5.32;-19.60
11457;-5.58;1.08;7.31;-0.17;0.33;-0.44;-32.90;7.14;-24.92
11466;-5.63;0.98;7.25;-0.17;0.33;-0.44;-43.61;7.56;-29.05
11474;-5.64;0.69;7.26;-0.16;0.32;-0.43;-46.90;5.32;-27.51
11483;-5.60;0.56;7.14;-0.16;0.32;-0.43;-37.80;1.61;-22.26
11492;-5.52;0.42;7.39;-0.16;0.32;-0.43;-24.08;-2.24;-15.33
11501;-5.80;0.52;7.54;-0.16;0.32;-0.42;-12.53;-4.62;-7.21
11509;-5.86;0.64;7.72;-0.16;0.32;-0.42;-4.76;-5.74;-3.01
11518;-6.15;0.69;7.80;-0.16;0.32;-0.42;-1.33;-5.18;-1.96
11527;-6.08;0.73;7.97;-0.17;0.30;-0.43;-3.71;-3.15;-2.17
11536;-5.89;0.67;7.80;-0.17;0.30;-0.43;-7.42;-0.14;-1.68
11544;-5.75;0.83;7.64;-0.17;0.30;-0.43;-11.83;1.82;-2.38
11553;-5.78;0.84;7.44;-0.15;0.30;-0.43;-15.54;1.12;-0.84
11562;-5.48;1.04;5.61;-0.15;0.30;-0.43;-16.24;-0.07;0.98
11571;-5.64;1.21;7.50;-0.15;0.30;-0.43;-13.16;-1.96;2.45
11579;-5.65;1.24;7.45;-0.15;0.30;-0.42;-8.75;-4.06;5.39
11588;-5.78;1.26;7.65;-0.15;0.30;-0.42;-1.89;-5.32;8.12
11597;-5.65;1.28;7.93;-0.15;0.30;-0.42;2.87;-6.23;9.80
11605;-5.71;1.28;8.01;-0.16;0.31;-0.43;4.13;-5.39;10.78
11614;-5.57;1.52;7.98;-0.16;0.31;-0.43;6.30;-4.69;10.15
11623;-5.61;1.50;7.96;-0.16;0.31;-0.43;5.39;-2.66;7.14
11632;-5.81;1.46;7.89;-0.15;0.31;-0.42;1.82;-1.75;4.27
11641;-5.81;1.34;7.75;-0.15;0.31;-0.42;-2.73;-0.63;1.68
11649;-5.81;1.25;7.85;-0.15;0.31;-0.42;-6.72;0.00;0.70
11658;-5.78;1.28;7.72;-0.17;0.31;-0.42;-8.05;0.07;1.40
11667;-5.81;1.23;7.66;-0.17;0.31;-0.42;-7.21;-1.54;2.45
11676;-5.62;1.26;7.72;-0.17;0.31;-0.42;-4.41;-2.87;3.99
11684;-5.68;1.36;7.87;-0.16;0.30;-0.43;-1.19;-3.99;5.25
11693;-5.79;1.56;7.89;-0.16;0.30;-0.43;0.07;-4.55;6.09
11702;-5.75;1.70;7.76;-0.16;0.30;-0.43;-0.70;-4.20;4.06
11711;-5.88;1.71;7.93;-0.16;0.30;-0.43;-3.57;-3.01;1.75
11719;-5.74;1.66;7.80;-0.16;0.30;-0.43;-5.88;-2.31;0.14
11728;-5.76;1.65;7.81;-0.16;0.30;-0.42;-7.63;-0.35;-0.77
11737;-6.02;1.64;7.87;-0.16;0.31;-0.42;-7.63;0.14;-0.91
11746;-5.86;1.48;7.81;-0.16;0.31;-0.42;-6.37;-0.28;0.00
11754;-5.90;1.25;7.74;-0.17;0.31;-0.44;-4.90;0.49;1.61
11763;-6.04;1.26;7.74;-0.17;0.31;-0.44;-3.99;-0.14;2.10
11772;-5.99;1.28;7.75;-0.17;0.31;-0.44;-3.01;-1.12;3.57
11781;-5.68;1.40;7.64;-0.16;0.31;-0.43;1.33;-1.82;6.30
11789;-5.62;1.71;7.62;-0.16;0.31;-0.43;5.11;-3.29;7.28
11798;-5.50;1.92;7.84;-0.16;0.31;-0.43;7.35;-4.27;6.16
11807;-5.56;1.87;7.80;-0.16;0.30;-0.43;6.79;-3.92;2.38
11816;-5.57;1.59;7.89;-0.16;0.30;-0.43;1.26;-2.80;-2.03
11824;-5.81;1.25;7.75;-0.16;0.30;-0.43;-3.50;-1.33;-4.62
11833;-5.92;0.85;7.75;-0.15;0.30;-0.43;-6.65;-0.28;-4.83
11842;-5.89;0.65;7.72;-0.15;0.30;-0.43;-8.68;0.63;-2.87
11851;-5.91;0.81;7.82;-0.15;0.30;-0.43;-7.49;0.63;0.70
11859;-5.87;1.02;7.77;-0.16;0.30;-0.43;-3.85;-0.07;3.08
11868;-5.70;1.35;7.67;-0.16;0.30;-0.43;1.05;-0.84;6.09
11877;-5.85;1.71;7.63;-0.16;0.30;-0.43;3.78;-1.68;7.77
11886;-5.69;1.67;7.68;-0.16;0.30;-0.42;6.02;-3.08;6.86
11894;-5.78;1.82;7.77;-0.16;0.30;-0.42;7.21;-3.71;5.04
11903;-5.77;1.62;7.82;-0.16;0.30;-0.42;5.39;-3.43;2.52
11912;-5.83;1.40;7.87;-0.17;0.30;-0.42;2.45;-2.45;-0.98
11921;-5.84;1.16;7.93;-0.17;0.30;-0.42;-1.89;-0.49;-3.22
11929;-5.94;1.03;7.85;-0.17;0.30;-0.42;-5.32;0.63;-3.50
11938;-5.87;0.99;7.88;-0.16;0.30;-0.42;-6.30;0.91;-2.52
11947;-5.89;1.02;7.86;-0.16;0.30;-0.42;-4.69;1.40;-0.42
11956;-5.94;1.15;7.70;-0.16;0.30;-0.42;-2.24;0.56;2.31
11964;-5.90;1.27;7.72;-0.16;0.30;-0.44;1.33;0.14;4.41
11973;-5.86;1.25;7.70;-0.16;0.30;-0.44;2.87;-0.63;4.55
11982;-5.89;1.28;7.67;-0.16;0.30;-0.44;2.31;-1.12;4.55
11991;-5.88;1.19;7.69;-0.17;0.30;-0.43;1.89;-1.19;4.62
11999;-5.74;1.26;7.72;-0.17;0.30;-0.43;2.03;-1.26;4.41
12008;-5.86;1.28;7.86;-0.17;0.30;-0.43;2.59;-2.52;4.48
12017;-5.85;1.36;7.79;-0.16;0.30;-0.42;3.22;-2.45;3.99
12025;-5.87;1.53;7.82;-0.16;0.30;-0.42;3.99;-1.54;2.94
12034;-5.85;1.41;7.89;-0.16;0.30;-0.42;2.87;0.35;1.19
12043;-5.88;1.09;7.75;-0.15;0.31;-0.43;0.56;1.12;-0.21
12052;-5.82;0.84;7.73;-0.15;0.31;-0.43;-2.10;1.40;0.21
12060;-5.97;0.72;7.51;-0.15;0.31;-0.43;-3.99;0.77;1.96
12069;-5.79;0.57;7.67;-0.16;0.31;-0.42;-4.76;0.70;3.08
12078;-5.99;0.57;7.81;-0.16;0.31;-0.42;-4.69;0.14;4.20
12087;-5.92;0.71;7.82;-0.16;0.31;-0.42;-5.39;0.00;6.23
12095;-5.84;0.98;7.73;-0.16;0.31;-0.43;-3.71;-0.21;9.24
12104;-5.88;1.13;7.82;-0.16;0.31;-0.43;0.07;-0.91;10.01
12113;-5.82;1.18;7.78;-0.16;0.31;-0.43;3.36;-0.91;11.76
12122;-5.93;1.20;7.77;-0.17;0.30;-0.42;4.13;-1.19;11.76
12130;-5.86;1.34;7.54;-0.17;0.30;-0.42;5.46;-0.77;12.32
12139;-5.98;1.11;7.63;-0.17;0.30;-0.42;7.77;-1.12;12.53
12148;-5.97;0.98;7.69;-0.17;0.30;-0.42;9.38;-2.10;14.00
12156;-5.81;1.02;7.67;-0.17;0.30;-0.42;10.71;-2.38;16.38
12165;-5.92;0.97;7.73;-0.16;0.31;-0.42;12.46;-2.52;17.64
12174;-5.89;0.85;7.59;-0.16;0.31;-0.42;13.02;-1.96;20.37
12183;-6.06;0.95;7.38;-0.16;0.31;-0.42;16.45;-2.59;23.38
12192;-6.06;0.82;7.37;-0.17;0.33;-0.42;18.97;-3.71;24.15
12200;-6.01;0.79;7.32;-0.17;0.33;-0.42;19.11;-4.41;25.27
12209;-5.92;0.69;7.12;-0.17;0.33;-0.42;18.62;-4.41;26.81
12218;-5.94;0.67;6.96;-0.17;0.32;-0.43;18.76;-6.02;27.79
12227;-5.63;0.81;6.88;-0.17;0.32;-0.43;19.81;-7.77;30.38
12235;-5.56;1.18;6.95;-0.17;0.32;-0.43;24.08;-10.15;32.76
12244;-5.46;1.41;7.11;-0.18;0.33;-0.43;28.56;-13.72;32.55
12253;-5.54;1.55;7.39;-0.18;0.33;-0.43;31.22;-15.68;31.50
12262;-5.79;1.49;7.57;-0.18;0.33;-0.43;31.78;-16.80;29.96
12270;-5.84;1.36;7.72;-0.19;0.34;-0.45;30.66;-17.15;28.49
12279;-5.87;1.21;7.60;-0.19;0.34;-0.45;33.39;-16.17;28.98
12288;-6.03;0.83;7.70;-0.19;0.34;-0.45;38.29;-15.96;29.89
12297;-6.07;0.50;7.87;-0.19;0.35;-0.43;40.88;-16.59;30.87
12305;-6.16;0.38;7.62;-0.19;0.35;-0.43;40.88;-16.31;33.67
12314;-6.12;0.22;7.69;-0.19;0.35;-0.43;42.00;-15.82;35.56
12323;-6.13;0.22;7.71;-0.19;0.35;-0.45;42.91;-15.82;37.10
12332;-6.14;0.29;7.63;-0.19;0.35;-0.45;43.96;-14.91;37.80
12340;-6.20;0.42;7.62;-0.19;0.35;-0.45;43.40;-14.56;36.54
12349;-6.39;0.45;7.67;-0.20;0.37;-0.43;40.39;-14.49;33.74
12358;-6.58;0.18;7.71;-0.20;0.37;-0.43;34.86;-13.30;29.05
12367;-6.56;-0.01;7.72;-0.20;0.37;-0.43;29.26;-12.39;26.74
12375;-6.57;-0.11;7.90;-0.20;0.37;-0.44;27.93;-12.39;27.23
12384;-7.05;-0.76;7.68;-0.20;0.37;-0.44;32.06;-8.96;27.86
12393;-7.24;-0.81;7.65;-0.20;0.37;-0.44;33.25;-10.08;30.80
12402;-6.93;-0.75;7.60;-0.19;0.38;-0.45;37.24;-10.22;37.17
12410;-6.91;-0.73;7.46;-0.19;0.38;-0.45;45.50;-10.15;45.57
12419;-7.07;-0.89;7.37;-0.19;0.38;-0.45;54.88;-9.10;51.17
12428;-6.73;-0.98;7.14;-0.21;0.39;-0.45;63.28;-11.41;57.54
12437;-6.32;-0.98;6.88;-0.21;0.39;-0.45;71.26;-11.69;63.49
12445;-6.10;-0.87;6.67;-0.21;0.39;-0.45;75.53;-11.27;65.59
12454;-6.00;-0.79;6.47;-0.22;0.42;-0.44;72.31;-11.90;63.21
12463;-6.18;-0.63;6.45;-0.22;0.42;-0.44;61.67;-13.44;55.44
12472;-6.28;-0.70;6.61;-0.22;0.42;-0.44;48.37;-14.42;45.01
12480;-6.30;-0.88;6.84;-0.21;0.42;-0.46;31.85;-15.12;36.19
12489;-6.54;-1.36;7.24;-0.21;0.42;-0.46;23.66;-15.40;31.78
12498;-6.44;-1.79;7.39;-0.21;0.42;-0.31;24.15;-16.87;32.34
12507;-6.32;-2.07;7.56;-0.22;0.43;-0.44;32.41;-18.13;38.43
12515;-6.40;-2.35;7.73;-0.22;0.43;-0.44;46.13;-19.60;46.34
12524;-6.31;-2.50;7.67;-0.22;0.45;-0.44;58.66;-20.09;53.97
12533;-6.35;-2.60;7.53;-0.22;0.45;-0.44;68.95;-19.53;60.62
12542;-6.38;-2.64;7.35;-0.22;0.45;-0.44;74.83;-17.92;63.28
12550;-6.55;-2.79;7.31;-0.22;0.46;-0.45;73.57;-16.38;63.28
12559;-6.68;-2.81;7.12;-0.22;0.46;-0.45;67.48;-15.05;60.90
12568;-6.60;-2.90;6.91;-0.22;0.46;-0.45;60.06;-13.02;59.78
12577;-6.43;-2.88;6.90;-0.23;0.49;-0.45;56.77;-12.53;58.45
12585;-6.43;-2.84;6.68;-0.23;0.49;-0.45;56.98;-12.88;56.56
12594;-6.30;-2.92;6.73;-0.23;0.49;-0.45;58.38;-14.63;53.97
12603;-6.08;-3.09;6.77;-0.23;0.50;-0.45;60.76;-15.26;51.94
12612;-6.30;-3.29;6.63;-0.23;0.50;-0.45;62.93;-15.68;49.98
12620;-6.41;-3.47;6.83;-0.23;0.50;-0.45;64.12;-15.40;48.86
12629;-6.26;-3.96;6.68;-0.24;0.53;-0.45;64.12;-14.42;49.56
12638;-6.60;-4.31;6.37;-0.24;0.53;-0.45;65.80;-13.72;51.45
12647;-6.65;-4.44;6.07;-0.24;0.53;-0.45;68.95;-15.05;55.93
12656;-6.52;-4.58;5.94;-0.24;0.54;-0.45;73.01;-17.57;61.74
12665;-6.49;-4.57;5.84;-0.24;0.54;-0.45;78.26;-19.81;67.20
12673;-6.40;-4.47;5.78;-0.24;0.54;-0.45;81.83;-21.21;70.07
12682;-6.37;-4.23;5.72;-0.24;0.55;-0.44;79.94;-21.28;67.13
12691;-6.31;-4.36;5.86;-0.24;0.55;-0.44;72.10;-20.86;61.88
12699;-6.30;-4.47;5.74;-0.24;0.55;-0.44;62.02;-18.76;55.65
12708;-6.46;-4.63;5.70;-0.24;0.58;-0.44;54.67;-18.97;49.98
12717;-6.22;-5.04;5.73;-0.24;0.58;-0.44;52.08;-19.74;48.51
12726;-6.22;-5.36;5.61;-0.24;0.58;-0.44;54.60;-20.93;50.19
12735;-6.38;-5.44;5.64;-0.24;0.59;-0.43;59.78;-21.49;52.15
12744;-6.41;-5.59;5.72;-0.24;0.59;-0.43;63.00;-21.77;52.36
12752;-6.49;-5.41;5.60;-0.24;0.59;-0.43;64.61;-23.38;52.36
12761;-6.27;-5.53;5.58;-0.25;0.62;-0.43;64.26;-23.10;51.87
12770;-6.35;-5.54;5.71;-0.25;0.62;-0.43;60.69;-22.12;50.19
12778;-6.25;-5.53;5.61;-0.25;0.62;-0.43;54.95;-21.00;48.09
12787;-6.02;-5.75;5.47;-0.24;0.63;-0.42;49.42;-18.90;47.04
12796;-6.16;-6.04;5.39;-0.24;0.63;-0.42;47.81;-19.46;47.18
12805;-6.15;-6.07;5.23;-0.24;0.63;-0.42;51.45;-22.82;52.43
12814;-5.98;-6.13;5.24;-0.25;0.64;-0.41;56.84;-26.81;57.68
12822;-6.15;-6.04;5.25;-0.25;0.64;-0.41;62.79;-29.26;60.83
12831;-6.05;-5.95;5.27;-0.25;0.64;-0.41;64.89;-30.66;62.72
12840;-6.04;-5.84;5.43;-0.25;0.66;-0.40;63.84;-28.84;61.88
12849;-6.07;-5.79;5.33;-0.25;0.66;-0.40;60.41;-26.46;58.31
12857;-5.97;-5.76;5.33;-0.25;0.66;-0.40;56.63;-23.45;54.53
12866;-5.85;-5.75;5.13;-0.25;0.68;-0.40;52.57;-19.46;50.33
12875;-5.66;-5.87;5.10;-0.25;0.68;-0.40;46.55;-16.87;45.08
12884;-5.46;-5.93;5.08;-0.25;0.69;-0.40;41.02;-14.42;39.41
12892;-5.58;-6.05;5.04;-0.25;0.69;-0.40;36.82;-14.28;34.86
12901;-5.46;-6.30;4.87;-0.25;0.69;-0.40;34.86;-16.66;32.41
12910;-5.55;-6.56;5.00;-0.24;0.70;-0.39;35.14;-18.55;32.69
12919;-5.75;-6.91;4.96;-0.24;0.70;-0.39;37.59;-20.86;35.56
12927;-5.67;-6.95;5.07;-0.24;0.70;-0.39;41.72;-22.05;39.76
12936;-5.75;-6.99;5.35;-0.25;0.71;-0.39;46.90;-21.07;43.26
12945;-5.95;-6.82;5.27;-0.25;0.71;-0.39;49.91;-19.60;43.61
12954;-5.76;-6.90;5.13;-0.25;0.71;-0.39;50.89;-16.03;43.40
12963;-5.49;-6.98;4.88;-0.23;0.72;-0.38;51.45;-11.90;42.77
12971;-5.48;-6.93;4.51;-0.23;0.72;-0.38;52.01;-10.01;41.79
12980;-5.28;-7.11;4.24;-0.23;0.72;-0.38;53.20;-10.36;42.00
12989;-5.07;-7.15;3.90;-0.25;0.73;-0.38;54.95;-14.77;42.63
12998;-5.15;-7.25;3.92;-0.25;0.73;-0.38;53.55;-19.18;41.51
13007;-4.92;-7.22;4.11;-0.25;0.73;-0.38;47.11;-20.51;38.64
13015;-5.14;-7.26;4.21;-0.23;0.74;-0.36;38.99;-17.36;33.39
13024;-5.23;-7.56;4.17;-0.23;0.74;-0.36;30.31;-15.33;29.68
13033;-5.23;-7.82;4.19;-0.23;0.74;-0.36;29.82;-13.72;28.70
13042;-5.39;-8.04;4.11;-0.23;0.75;-0.36;32.13;-12.67;30.94
13050;-5.34;-8.13;3.98;-0.23;0.75;-0.36;35.63;-12.67;34.65
13059;-5.31;-8.26;3.65;-0.23;0.75;-0.36;43.47;-15.68;39.97
13068;-5.35;-8.03;3.52;-0.24;0.76;-0.35;51.87;-20.58;45.22
13077;-5.15;-8.09;3.67;-0.24;0.76;-0.35;56.56;-24.57;47.53
13085;-5.18;-7.73;3.70;-0.24;0.76;-0.35;56.42;-24.99;45.92
13094;-4.95;-7.64;3.73;-0.24;0.77;-0.36;51.31;-21.07;41.23
13103;-5.02;-7.67;3.73;-0.24;0.77;-0.36;41.02;-13.93;34.72
13112;-4.87;-7.65;3.80;-0.24;0.77;-0.36;29.61;-7.21;26.67
13120;-4.95;-7.74;3.48;-0.23;0.78;-0.35;18.48;-1.26;18.34
13129;-5.00;-7.90;3.31;-0.23;0.78;-0.35;9.73;4.48;12.46
13138;-5.05;-8.26;2.99;-0.23;0.78;-0.35;4.06;6.58;10.01
13147;-5.02;-8.52;2.77;-0.23;0.78;-0.36;5.60;4.34;12.88
13155;-4.97;-8.71;2.75;-0.23;0.78;-0.36;12.11;-0.84;19.74
13164;-4.97;-8.54;2.68;-0.23;0.78;-0.36;21.84;-6.51;26.81
13173;-4.95;-8.37;2.78;-0.22;0.78;-0.36;32.83;-13.86;31.36
13182;-4.86;-8.14;2.77;-0.22;0.78;-0.36;39.34;-19.25;32.69
13190;-4.66;-8.06;3.09;-0.22;0.78;-0.36;38.15;-19.11;30.66
13199;-4.60;-7.90;3.12;-0.23;0.79;-0.34;31.64;-14.84;24.78
13208;-4.59;-8.03;3.28;-0.23;0.79;-0.34;19.39;-8.54;17.50
13217;-4.47;-8.13;3.08;-0.23;0.79;-0.35;9.03;-2.66;10.22
13225;-4.59;-8.47;3.05;-0.23;0.80;-0.35;1.96;3.64;6.16
13234;-4.65;-8.66;2.78;-0.23;0.80;-0.35;0.21;5.60;4.69
13243;-4.75;-8.79;2.71;-0.23;0.80;-0.33;2.59;5.53;7.14
13252;-4.76;-8.88;2.46;-0.23;0.80;-0.33;7.84;1.82;11.34
13260;-4.74;-8.79;2.25;-0.23;0.80;-0.33;16.80;-4.34;17.78
13269;-4.88;-8.79;2.13;-0.22;0.81;-0.33;29.96;-12.25;26.25
13278;-4.55;-8.48;2.43;-0.22;0.81;-0.33;41.65;-21.84;31.01
13287;-4.44;-8.23;2.72;-0.22;0.81;-0.33;48.09;-25.20;33.60
13295;-4.44;-8.07;2.84;-0.22;0.81;-0.32;48.44;-24.43;31.43
13304;-4.40;-7.97;2.73;-0.22;0.81;-0.32;42.21;-21.00;24.43
13313;-4.48;-8.13;2.87;-0.22;0.81;-0.32;28.49;-13.37;15.96
13322;-4.59;-8.33;2.95;-0.23;0.82;-0.31;13.51;-6.44;7.77
13330;-4.62;-8.52;2.97;-0.23;0.82;-0.31;0.84;-0.56;1.82
13339;-4.77;-8.79;2.89;-0.23;0.82;-0.31;-6.30;4.27;-1.47
13348;-4.72;-8.93;2.81;-0.23;0.81;-0.32;-7.14;5.95;0.00
13357;-4.60;-9.15;2.63;-0.23;0.81;-0.32;-0.91;5.04;4.20
13365;-4.41;-9.30;2.49;-0.23;0.81;-0.32;7.98;1.75;10.43
13374;-4.42;-9.44;2.33;-0.23;0.81;-0.32;22.61;-4.55;18.48
13383;-4.26;-9.42;2.47;-0.23;0.81;-0.32;53.20;-11.20;24.15
13392;-4.02;-9.33;2.63;-0.23;0.81;-0.32;41.44;-14.00;26.95
13401;-3.97;-9.20;2.66;-0.22;0.83;-0.32;41.30;-13.86;26.67
13409;-3.88;-9.15;2.81;-0.22;0.83;-0.32;37.03;-10.08;24.50
13418;-3.95;-9.01;2.82;-0.22;0.83;-0.32;29.75;-5.67;21.14
13427;-3.93;-9.05;2.70;-0.22;0.83;-0.31;20.79;-2.31;17.15
13435;-3.88;-9.10;2.58;-0.22;0.83;-0.31;13.93;1.19;12.88
13444;-3.80;-9.33;2.45;-0.22;0.83;-0.31;8.40;3.78;10.78
13453;-3.75;-9.46;2.19;-0.22;0.84;-0.31;8.19;3.08;11.69
13462;-3.68;-9.57;2.25;-0.22;0.84;-0.31;11.83;2.17;15.89
13470;-3.61;-9.39;1.94;-0.22;0.84;-0.31;20.16;-0.84;21.00
13479;-3.65;-9.20;1.81;-0.22;0.83;-0.31;27.79;-4.20;24.71
13488;-3.70;-9.07;1.92;-0.22;0.83;-0.31;33.60;-6.23;27.86
13497;-3.70;-8.91;1.94;-0.22;0.83;-0.31;35.98;-7.14;27.86
13505;-3.66;-8.73;1.99;-0.21;0.84;-0.31;35.07;-7.14;24.92
13514;-3.63;-8.81;1.93;-0.21;0.84;-0.31;32.55;-6.72;21.35
13523;-3.66;-8.80;1.96;-0.21;0.84;-0.31;28.70;-5.18;17.64
13532;-3.64;-9.08;1.69;-0.21;0.85;-0.29;25.90;-3.92;15.33
13540;-3.79;-9.20;1.50;-0.21;0.85;-0.29;27.51;-4.83;14.84
13549;-3.69;-9.43;1.51;-0.21;0.85;-0.29;30.03;-6.16;16.59
13558;-3.68;-9.33;1.46;-0.21;0.85;-0.29;28.63;-8.89;17.78
13567;-3.61;-9.55;1.44;-0.21;0.85;-0.29;29.26;-4.76;17.85
13576;-3.91;-9.38;1.37;-0.21;0.85;-0.29;27.44;-4.90;18.69
13584;-3.91;-9.43;1.38;-0.20;0.86;-0.28;27.44;-8.26;20.65
13593;-3.70;-9.62;1.36;-0.20;0.86;-0.28;30.52;-6.72;21.77
13602;-3.87;-9.40;1.44;-0.21;0.86;-0.28;35.35;-7.21;23.87
13611;-3.78;-9.40;1.56;-0.21;0.86;-0.28;37.38;-7.49;25.76
13619;-3.48;-9.28;1.49;-0.21;0.86;-0.28;37.66;-3.15;24.64
13628;-3.76;-9.26;1.28;-0.20;0.86;-0.28;33.74;1.89;22.96
13637;-3.57;-9.28;1.27;-0.20;0.86;-0.28;26.67;4.76;20.37
13646;-3.51;-9.35;1.01;-0.20;0.86;-0.28;19.74;6.72;18.55
13654;-3.50;-9.30;0.80;-0.20;0.87;-0.26;16.80;6.72;18.62
13663;-3.42;-9.52;0.72;-0.20;0.87;-0.26;18.27;4.55;20.09
13672;-3.46;-9.26;0.76;-0.20;0.87;-0.26;20.37;-0.28;20.44
13681;-3.13;-9.28;0.78;-0.19;0.87;-0.27;23.66;0.91;23.59
13689;-3.03;-9.17;0.74;-0.19;0.87;-0.27;25.41;-1.89;22.96
13698;-3.24;-9.12;0.90;-0.19;0.87;-0.27;25.27;-1.96;20.79
13707;-3.27;-9.15;0.81;-0.19;0.88;-0.27;21.42;-2.59;17.99
13716;-3.40;-9.15;1.05;-0.19;0.88;-0.27;15.26;-3.36;14.42
13724;-2.96;-9.20;1.06;-0.19;0.88;-0.27;11.20;0.21;11.62
13733;-3.42;-9.02;1.11;-0.18;0.87;-0.26;6.16;4.62;8.54
13742;-3.09;-9.13;0.95;-0.18;0.87;-0.26;0.63;8.19;5.81
13751;-3.09;-9.27;0.85;-0.18;0.87;-0.26;-2.24;10.36;2.87
13759;-3.07;-9.43;0.84;-0.18;0.88;-0.26;-0.98;10.85;3.36
13768;-3.02;-9.49;0.68;-0.18;0.88;-0.26;3.29;7.98;5.67
13777;-3.13;-9.53;0.59;-0.18;0.88;-0.26;9.38;2.66;8.05
13786;-3.09;-9.68;0.72;-0.19;0.87;-0.26;14.98;-0.70;10.78
13795;-3.22;-9.63;0.89;-0.19;0.87;-0.26;16.31;-3.78;12.18
13803;-3.08;-9.38;0.73;-0.19;0.87;-0.26;16.03;-2.17;11.69
13812;-3.13;-9.33;1.03;-0.18;0.88;-0.25;12.46;-0.77;9.17
13821;-3.00;-9.40;1.04;-0.18;0.88;-0.25;4.97;2.66;7.70
13830;-2.91;-9.24;1.07;-0.18;0.88;-0.25;-1.12;6.58;5.11
13838;-2.86;-9.27;1.08;-0.18;0.88;-0.25;-7.00;8.68;1.19
13847;-2.81;-9.46;1.06;-0.18;0.88;-0.25;-10.78;12.60;-1.47
13856;-2.92;-9.71;0.98;-0.18;0.88;-0.25;-11.34;13.30;-2.31
13864;-2.83;-9.84;0.75;-0.18;0.88;-0.25;-8.96;10.92;-0.07
13873;-3.01;-10.05;0.72;-0.18;0.88;-0.25;-1.68;5.88;6.09
13882;-2.98;-10.01;0.75;-0.18;0.88;-0.25;7.56;0.56;12.18
13891;-2.95;-9.79;0.75;-0.17;0.88;-0.26;17.50;-3.08;15.33
13899;-3.00;-9.68;0.80;-0.17;0.88;-0.26;22.12;-4.76;16.66
13908;-2.95;-9.60;0.71;-0.17;0.88;-0.26;23.03;-4.90;15.89
13917;-2.69;-9.78;0.85;-0.17;0.87;-0.24;20.09;-4.27;14.14
13926;-2.80;-9.76;0.97;-0.17;0.87;-0.24;13.09;-0.77;12.32
13935;-2.86;-9.72;0.92;-0.17;0.87;-0.24;4.83;3.29;8.12
13943;-2.96;-9.76;0.90;-0.18;0.89;-0.25;-0.91;6.23;6.16
13952;-3.02;-9.79;0.76;-0.18;0.89;-0.25;-5.67;8.33;6.23
13961;-3.04;-9.84;0.63;-0.18;0.89;-0.25;-8.47;8.68;5.39
13969;-3.04;-9.79;0.56;-0.18;0.88;-0.25;-6.30;7.35;7.21
13978;-3.04;-9.97;0.64;-0.18;0.88;-0.25;-2.24;4.55;9.38
13987;-2.90;-9.98;0.60;-0.17;0.89;-0.24;1.75;1.75;12.60
13996;-3.17;-10.16;0.71;-0.17;0.89;-0.24;4.41;-3.85;14.84
14004;-2.91;-10.22;0.85;-0.17;0.89;-0.24;8.54;-4.97;14.70
14013;-2.81;-9.81;0.92;-0.16;0.88;-0.25;6.93;-4.34;15.33
14022;-2.99;-9.78;1.13;-0.16;0.88;-0.25;5.18;-2.52;15.33
14031;-2.75;-9.58;0.98;-0.16;0.88;-0.25;3.15;-0.84;13.23
14040;-2.81;-9.45;1.04;-0.17;0.89;-0.25;1.47;2.59;11.13
14048;-2.63;-9.55;1.06;-0.17;0.89;-0.25;0.42;4.34;8.40
14057;-2.61;-9.59;0.90;-0.17;0.89;-0.25;0.28;6.65;6.65
14066;-2.52;-9.59;0.80;-0.16;0.89;-0.25;2.45;6.58;6.58
14075;-2.68;-9.71;0.68;-0.16;0.89;-0.25;6.30;4.97;8.26
14084;-2.63;-9.78;0.67;-0.16;0.89;-0.25;9.59;3.01;10.64
14092;-2.61;-9.81;0.71;-0.16;0.89;-0.25;10.36;-0.07;11.90
14101;-2.54;-9.69;0.66;-0.16;0.89;-0.25;9.10;-2.24;11.62
14110;-2.39;-9.68;0.65;-0.16;0.89;-0.25;6.44;-3.64;10.15
14119;-2.19;-9.68;0.88;-0.15;0.88;-0.25;3.08;-3.64;8.61
14127;-2.14;-9.81;0.81;-0.15;0.88;-0.25;-0.42;-2.80;5.39
14136;-1.97;-9.86;1.01;-0.15;0.88;-0.25;-3.78;-2.24;3.71
14145;-1.95;-9.91;1.18;-0.15;0.90;-0.24;-4.41;-0.98;3.57
14154;-3.65;-9.80;1.17;-0.15;0.90;-0.24;-3.50;-0.14;4.27
14162;-1.78;-9.67;1.14;-0.15;0.90;-0.24;-1.26;1.33;4.69
14171;-1.73;-9.52;1.06;-0.16;0.90;-0.24;0.00;0.84;4.83
14180;-1.83;-9.63;1.00;-0.16;0.90;-0.24;0.91;-0.14;5.18
14189;-1.97;-9.51;0.93;-0.16;0.90;-0.24;0.70;-1.05;4.76
14197;-2.02;-9.54;0.90;-0.15;0.89;-0.26;0.42;-2.38;3.78
14206;-2.03;-9.55;0.90;-0.15;0.89;-0.26;0.70;-2.80;3.57
14215;-2.05;-9.58;0.90;-0.15;0.89;-0.26;0.77;-3.64;2.59
14224;-1.98;-9.65;0.92;-0.15;0.89;-0.25;-1.12;-3.36;1.96
14232;-2.06;-9.56;0.75;-0.15;0.89;-0.25;-3.01;-3.01;0.28
14241;-2.05;-9.60;0.78;-0.15;0.89;-0.25;-4.13;-3.36;-1.68
14250;-2.30;-9.63;0.72;-0.16;0.89;-0.25;-3.71;-2.31;-2.73
14259;-2.56;-9.67;0.66;-0.16;0.89;-0.25;-2.31;-0.98;-2.73
14267;-2.51;-9.70;0.52;-0.16;0.89;-0.25;-0.63;0.21;-2.03
14276;-2.84;-9.80;0.32;-0.15;0.90;-0.25;1.75;-0.70;-0.91
14285;-2.86;-9.98;0.19;-0.15;0.90;-0.25;4.27;-2.66;0.63
14294;-2.91;-10.04;0.19;-0.15;0.90;-0.25;5.04;-4.62;2.24
14302;-2.91;-9.91;0.30;-0.15;0.89;-0.24;3.29;-5.25;3.08
14311;-3.01;-9.87;0.34;-0.15;0.89;-0.24;0.42;-5.67;2.45
14320;-3.07;-9.81;0.50;-0.15;0.89;-0.24;-3.15;-4.55;1.61
14329;-3.04;-9.71;0.44;-0.15;0.89;-0.25;-4.97;-3.36;0.91
14337;-2.93;-9.65;0.39;-0.15;0.89;-0.25;-5.18;-2.94;0.42
14346;-3.01;-9.60;0.46;-0.15;0.89;-0.24;-3.85;-2.38;0.49
14355;-2.92;-9.73;0.57;-0.14;0.89;-0.24;-2.38;-2.52;1.26
14364;-2.85;-9.62;0.64;-0.14;0.89;-0.24;-0.91;-1.54;2.24
14372;-2.91;-9.66;0.68;-0.15;0.88;-0.24;-0.84;-0.56;2.31
14381;-2.73;-9.68;0.75;-0.15;0.88;-0.24;-0.21;0.00;2.66
14390;-2.70;-9.74;0.78;-0.15;0.88;-0.24;0.07;-0.14;3.22
14399;-2.63;-9.73;0.59;-0.15;0.90;-0.26;0.98;-0.70;4.27
14408;-2.53;-9.63;0.70;-0.15;0.90;-0.26;0.91;-1.19;3.71
14416;-2.57;-9.55;0.66;-0.15;0.90;-0.26;-0.07;-1.61;2.73
14425;-2.37;-9.58;0.70;-0.15;0.89;-0.24;-1.26;-1.54;1.61
14434;-2.43;-9.59;0.89;-0.15;0.89;-0.24;-2.59;-1.75;-0.35
14443;-2.30;-9.70;0.79;-0.15;0.89;-0.24;-3.78;-1.61;-1.12
14451;-2.28;-9.70;0.96;-0.15;0.89;-0.25;-4.34;-0.84;-1.61
14460;-2.39;-9.79;1.10;-0.15;0.89;-0.25;-4.34;0.07;-1.75
14469;-2.23;-9.81;1.06;-0.15;0.89;-0.25;-2.59;1.12;-2.03
14478;-2.20;-9.76;0.99;-0.15;0.90;-0.25;-1.96;1.75;-1.26
14486;-2.13;-9.85;1.19;-0.15;0.90;-0.25;-1.12;2.17;-1.05
14495;-2.07;-9.78;1.05;-0.15;0.90;-0.25;-1.54;2.10;-1.19
14504;-2.07;-9.76;1.10;-0.15;0.89;-0.25;-2.17;1.96;-1.61
14513;-2.03;-9.78;0.98;-0.15;0.89;-0.25;-3.50;2.03;-3.36
14521;-2.07;-9.82;0.91;-0.15;0.89;-0.25;-4.90;1.68;-4.48
14530;-2.34;-9.96;0.88;-0.15;0.89;-0.24;-6.37;1.26;-4.90
14539;-2.40;-10.10;0.78;-0.15;0.89;-0.24;-6.16;1.19;-4.62
14548;-2.59;-10.14;0.66;-0.15;0.89;-0.24;-6.30;0.49;-3.22
14556;-2.59;-10.11;0.68;-0.15;0.89;-0.26;-4.76;-0.21;-1.33
14565;-2.60;-10.06;0.70;-0.15;0.89;-0.26;-2.03;-0.35;0.21
14574;-2.56;-10.03;0.72;-0.15;0.89;-0.26;-0.84;0.84;1.54
14583;-2.48;-9.92;0.75;-0.16;0.89;-0.25;-0.98;1.47;1.89
14591;-2.47;-9.90;0.68;-0.16;0.89;-0.25;-3.01;2.17;1.12
14600;-2.34;-9.91;0.70;-0.16;0.89;-0.25;-5.74;2.17;0.07
14609;-2.33;-10.00;0.84;-0.15;0.89;-0.25;-8.40;2.45;-0.28
14618;-2.29;-9.96;0.70;-0.15;0.89;-0.25;-9.66;2.10;-0.42
14626;-2.39;-9.88;0.81;-0.15;0.89;-0.25;-9.73;1.47;-1.19
14635;-2.46;-9.81;0.78;-0.15;0.89;-0.26;-9.59;0.49;-1.96
14644;-2.48;-9.81;0.88;-0.15;0.89;-0.26;-10.15;-0.14;-2.94
14653;-2.58;-9.81;1.11;-0.15;0.89;-0.26;-11.62;-0.70;-3.64
14661;-2.67;-9.87;1.20;-0.16;0.88;-0.25;-12.04;-0.77;-3.64
14670;-2.64;-9.90;1.30;-0.16;0.88;-0.25;-12.46;0.07;-3.15
14679;-2.61;-9.90;1.28;-0.16;0.88;-0.25;-12.25;1.54;-2.52
14688;-2.46;-9.71;1.36;-0.15;0.89;-0.26;-11.97;2.38;-2.17
14696;-2.33;-9.57;1.49;-0.15;0.89;-0.26;-11.97;3.43;-2.31
14705;-2.32;-9.38;1.32;-0.15;0.89;-0.27;-12.11;4.48;-3.43
14714;-2.36;-9.46;1.44;-0.16;0.88;-0.27;-12.74;5.67;-5.04
14723;-2.33;-9.32;1.32;-0.16;0.88;-0.27;-14.07;5.88;-5.60
14731;-2.37;-9.24;1.46;-0.15;0.88;-0.27;-15.26;5.25;-7.70
14740;-2.42;-9.35;1.41;-0.15;0.88;-0.27;-15.96;4.62;-9.17
14749;-2.38;-9.36;1.36;-0.15;0.88;-0.27;-16.31;3.99;-9.87
14758;-2.45;-9.45;1.46;-0.15;0.88;-0.26;-15.19;4.20;-10.01
14767;-2.38;-9.43;1.51;-0.15;0.88;-0.26;-13.86;4.48;-9.24
14775;-2.36;-9.55;1.49;-0.15;0.88;-0.26;-12.60;5.46;-8.19
14784;-2.43;-9.54;1.45;-0.15;0.87;-0.27;-10.64;6.93;-7.28
14793;-2.51;-9.58;1.24;-0.15;0.87;-0.27;-10.57;7.91;-7.07
14801;-2.44;-9.48;1.29;-0.15;0.87;-0.27;-10.99;8.54;-7.35
14810;-2.65;-9.49;1.11;-0.16;0.88;-0.26;-14.84;10.08;-9.17
14819;-2.67;-9.48;0.92;-0.16;0.88;-0.26;-16.52;10.43;-10.50
14828;-2.69;-9.43;0.95;-0.16;0.88;-0.26;-20.16;10.22;-12.11
14837;-2.76;-9.43;0.92;-0.16;0.88;-0.28;-24.01;10.36;-14.28
14845;-2.68;-9.32;1.22;-0.16;0.88;-0.28;-27.93;9.66;-16.87
14854;-2.57;-9.25;1.21;-0.16;0.88;-0.28;-31.64;8.89;-19.11
14863;-2.52;-9.30;1.41;-0.16;0.87;-0.27;-36.19;8.33;-21.70
14871;-2.44;-9.26;1.52;-0.16;0.87;-0.27;-39.62;8.82;-23.31
14880;-2.66;-9.35;1.79;-0.16;0.87;-0.27;-43.26;10.29;-25.90
14889;-2.83;-9.35;1.77;-0.17;0.87;-0.29;-45.85;12.95;-27.09
14898;-2.91;-9.33;1.90;-0.17;0.87;-0.29;-48.58;16.10;-27.02
14906;-3.11;-9.68;1.92;-0.17;0.87;-0.29;-51.52;20.44;-27.44
14915;-3.08;-9.66;1.87;-0.15;0.85;-0.29;-51.17;22.33;-26.67
14924;-3.39;-9.82;1.77;-0.15;0.85;-0.29;-48.86;18.55;-24.01
14933;-3.13;-9.78;1.90;-0.15;0.85;-0.29;-41.16;15.05;-21.21
14942;-3.29;-9.69;2.13;-0.16;0.86;-0.30;-33.67;11.55;-18.06
14950;-3.32;-9.52;2.11;-0.16;0.86;-0.30;-28.21;8.75;-16.10
14959;-3.43;-9.23;2.16;-0.16;0.86;-0.30;-23.80;8.40;-15.82
14968;-3.44;-9.08;2.38;-0.16;0.85;-0.31;-23.52;9.03;-17.29
14977;-3.53;-8.94;2.33;-0.16;0.85;-0.31;-26.67;11.55;-21.28
14986;-3.63;-8.90;2.35;-0.16;0.85;-0.31;-32.06;14.91;-24.50
14994;-3.60;-8.97;2.34;-0.17;0.85;-0.32;-38.85;16.87;-27.02
15003;-3.72;-9.03;2.37;-0.17;0.85;-0.32;-43.89;18.55;-29.33
complete
