Time(ms);AccX(m/s^2);AccY(m/s^2);AccZ(m/s^2);MagX(gauss);MagY(gauss);MagZ(gauss);GyroX(dps);GyroY(dps);GyroZ(dps)
32;-0.74;-9.99;1.50;0.03;0.89;-0.24;-1.47;-4.41;1.05
41;-0.67;-9.91;1.54;0.03;0.89;-0.24;-0.98;-4.83;0.49
50;-0.73;-9.84;1.36;0.03;0.89;-0.24;-0.28;-4.90;-0.35
59;-0.63;-9.86;1.31;0.04;0.89;-0.24;-0.77;-4.83;-0.35
67;-0.70;-9.88;1.44;0.04;0.89;-0.24;-0.42;-4.69;-0.35
76;-0.69;-9.90;1.34;0.04;0.89;-0.24;-0.91;-4.55;-0.91
85;-0.75;-9.80;1.38;0.04;0.89;-0.24;-2.38;-4.55;-0.21
94;-0.74;-9.88;1.39;0.04;0.89;-0.24;-3.15;-4.20;-0.42
102;-0.75;-9.89;1.39;0.04;0.89;-0.24;-3.08;-3.78;-0.28
111;-0.63;-9.83;1.28;0.03;0.89;-0.22;-2.87;-3.01;-0.21
120;-0.73;-9.82;1.38;0.03;0.89;-0.22;-2.52;-2.31;-0.07
129;-0.67;-9.86;1.34;0.03;0.89;-0.22;-1.89;-1.54;-0.07
137;-0.70;-9.78;1.32;0.04;0.89;-0.23;-0.91;-0.91;-0.35
146;-0.77;-9.80;1.43;0.04;0.89;-0.23;-0.70;0.07;-0.70
155;-0.50;-9.81;1.26;0.04;0.89;-0.23;-1.12;0.70;-1.12
164;-0.71;-9.76;1.25;0.04;0.90;-0.23;-0.77;0.49;-1.12
172;-0.67;-9.81;1.15;0.04;0.90;-0.23;-0.91;-0.35;-1.54
181;-0.68;-9.80;1.26;0.04;0.90;-0.23;-0.42;-1.75;-2.03
190;-0.71;-9.87;1.38;0.04;0.90;-0.23;0.42;-2.66;-2.24
199;-0.78;-9.73;1.26;0.04;0.90;-0.23;0.35;-1.89;-2.52
207;-0.69;-9.83;1.36;0.04;0.90;-0.23;-0.35;-1.54;-2.03
216;-0.63;-9.96;1.51;0.04;0.90;-0.23;-0.63;-0.91;-1.68
225;-0.73;-9.86;1.46;0.04;0.90;-0.23;-0.28;0.70;-0.49
234;-0.67;-9.81;1.41;0.04;0.89;-0.22;0.49;1.61;0.14
242;-0.56;-9.86;1.39;0.04;0.89;-0.22;0.63;2.24;-0.21
251;-0.62;-9.81;1.23;0.04;0.89;-0.22;0.28;2.17;-0.77
260;-0.72;-9.85;1.45;0.03;0.89;-0.23;0.14;2.17;-0.56
269;-0.75;-9.81;1.34;0.03;0.89;-0.23;0.49;1.82;-0.63
277;-0.72;-9.88;1.50;0.03;0.89;-0.23;1.19;1.54;-1.26
286;-0.75;-9.88;1.45;0.03;0.89;-0.23;2.03;1.33;-1.26
295;-0.73;-9.88;1.28;0.03;0.89;-0.23;2.10;0.42;-1.68
304;-0.78;-9.83;1.26;0.03;0.89;-0.23;1.40;-0.21;-1.54
313;-0.76;-9.96;1.33;0.03;0.89;-0.22;1.19;-0.35;-1.19
321;-0.73;-9.93;1.49;0.03;0.89;-0.22;0.77;1.12;-1.26
330;-0.64;-9.87;1.48;0.03;0.89;-0.22;0.21;0.77;-1.33
339;-0.57;-9.86;1.55;0.03;0.89;-0.23;-0.28;1.05;-1.33
348;-0.46;-9.91;1.36;0.03;0.89;-0.23;0.07;1.33;-1.19
356;-0.57;-9.71;1.38;0.03;0.89;-0.23;0.00;1.89;-1.05
365;-0.50;-9.78;1.36;0.03;0.89;-0.23;1.19;2.31;-1.54
374;-0.47;-9.73;1.34;0.03;0.89;-0.23;1.54;1.82;-1.68
383;-0.36;-9.67;1.25;0.03;0.89;-0.23;2.17;1.54;-2.94
391;-0.19;-9.67;1.28;0.02;0.89;-0.24;2.94;0.77;-3.50
400;-0.19;-9.65;1.31;0.02;0.89;-0.24;3.57;0.77;-4.90
409;-0.19;-9.75;1.25;0.02;0.89;-0.24;3.43;1.05;-5.67
418;-0.36;-9.61;1.22;0.03;0.89;-0.22;3.15;0.98;-7.49
426;-0.47;-9.74;1.23;0.03;0.89;-0.22;3.36;0.35;-9.10
435;-0.32;-9.96;1.17;0.03;0.89;-0.22;3.99;0.07;-9.45
444;-0.39;-9.91;1.26;0.03;0.90;-0.24;3.50;0.28;-9.59
453;-0.21;-9.99;1.17;0.03;0.90;-0.24;2.03;-0.42;-8.68
461;-0.12;-10.10;1.20;0.03;0.90;-0.24;0.14;-0.21;-7.91
470;0.06;-10.21;1.23;0.03;0.90;-0.23;-2.73;0.28;-7.70
479;0.34;-10.21;1.41;0.03;0.90;-0.23;-5.46;0.21;-7.35
488;0.28;-10.34;1.62;0.03;0.90;-0.23;-6.72;0.49;-7.49
496;0.42;-10.31;2.05;0.03;0.90;-0.24;-6.86;2.10;-7.42
505;0.48;-10.26;2.02;0.03;0.90;-0.24;-5.81;4.90;-7.14
514;0.52;-10.16;2.09;0.03;0.90;-0.24;-6.16;8.19;-7.00
523;0.67;-10.24;2.07;0.03;0.89;-0.23;-8.26;10.43;-7.07
531;0.66;-10.22;2.00;0.03;0.89;-0.23;-10.57;11.20;-6.79
540;0.83;-10.14;1.92;0.03;0.89;-0.23;-13.79;11.83;-6.16
549;1.00;-10.34;2.15;0.03;0.90;-0.23;-16.94;11.34;-5.46
558;1.14;-10.09;2.30;0.03;0.90;-0.23;-21.35;11.97;-7.00
566;1.16;-10.14;2.25;0.03;0.89;-0.23;-26.25;15.47;-7.07
575;1.28;-9.93;2.40;0.03;0.89;-0.23;-32.06;18.62;-7.49
584;1.28;-9.93;2.28;0.03;0.89;-0.23;-36.40;22.47;-6.09
593;1.33;-9.85;2.31;0.03;0.90;-0.24;-42.49;23.66;-6.58
601;1.43;-9.61;2.44;0.03;0.90;-0.24;-47.67;21.42;-8.26
610;1.38;-9.64;2.39;0.03;0.90;-0.24;-50.26;17.99;-11.13
619;1.39;-9.54;2.79;0.02;0.88;-0.25;-51.38;16.10;-13.23
628;1.54;-9.76;3.25;0.02;0.88;-0.25;-51.73;19.11;-13.16
636;1.61;-9.67;3.47;0.02;0.88;-0.25;-49.21;24.92;-11.76
645;1.76;-9.74;3.48;0.03;0.88;-0.25;-46.27;30.80;-10.78
654;1.82;-9.76;3.39;0.03;0.88;-0.25;-42.49;33.46;-12.53
663;1.69;-9.58;3.07;0.03;0.88;-0.25;-36.40;33.74;-17.50
672;1.46;-9.62;2.75;0.03;0.87;-0.26;-29.54;30.24;-23.80
680;1.34;-9.72;2.46;0.03;0.87;-0.26;-26.60;26.18;-29.40
689;1.44;-9.60;2.00;0.03;0.87;-0.26;-28.56;20.65;-34.16
698;1.13;-9.52;1.80;0.02;0.88;-0.27;-34.65;14.28;-38.15
707;0.98;-9.46;1.77;0.02;0.88;-0.27;-44.73;6.58;-41.16
715;1.02;-9.40;1.91;0.02;0.88;-0.27;-54.11;1.33;-41.79
724;0.88;-9.19;2.16;0.02;0.88;-0.27;-63.00;-0.14;-41.16
733;0.78;-8.98;2.18;0.02;0.88;-0.27;-73.08;-0.56;-41.51
742;0.70;-8.72;2.42;0.02;0.88;-0.27;-87.78;-2.59;-42.00
750;0.73;-8.52;2.65;0.02;0.85;-0.29;-102.34;-6.58;-41.93
759;0.84;-8.23;3.04;0.02;0.85;-0.29;-114.66;-13.86;-41.37
768;1.17;-7.91;3.27;0.02;0.85;-0.29;-129.92;-25.34;-40.11
777;1.72;-7.50;3.74;0.02;0.84;-0.29;-153.09;-42.63;-37.10
785;2.23;-5.86;3.37;0.02;0.84;-0.29;-199.43;-56.84;-31.36
794;2.71;-3.01;4.03;0.02;0.84;-0.29;-266.14;-54.53;-17.22
803;11.42;0.67;9.71;-0.02;0.81;-0.34;-365.33;-55.16;5.95
812;6.09;8.95;11.03;-0.02;0.81;-0.34;-501.55;-95.27;25.62
820;12.42;14.90;11.54;-0.02;0.81;-0.34;-634.48;-202.16;59.92
829;11.59;29.11;14.14;-0.03;0.74;-0.42;-683.48;-226.10;-0.84
838;15.04;26.07;14.86;-0.03;0.74;-0.42;-532.14;-89.46;-228.13
847;10.57;25.76;15.91;-0.03;0.74;-0.42;-444.50;39.20;-481.11
855;3.24;21.90;12.99;-0.07;0.62;-0.45;-459.06;177.66;-721.49
864;-11.68;20.32;12.25;-0.07;0.62;-0.45;-497.56;322.70;-850.99
873;-30.36;20.01;-1.21;-0.07;0.62;-0.45;-487.13;465.57;-879.76
882;-49.97;15.46;4.97;-0.03;0.51;-0.48;-820.40;533.40;-784.21
890;-58.28;6.83;6.89;-0.03;0.51;-0.48;-1309.63;340.69;-581.42
899;-51.58;2.69;21.34;-0.03;0.51;-0.48;-1598.80;14.49;-367.50
908;-50.44;-6.19;45.81;0.02;0.29;-0.42;-1547.56;-272.86;-242.90
917;-39.29;-26.14;70.34;0.02;0.29;-0.42;-1019.06;-314.51;-179.90
926;-25.13;-42.14;80.32;-0.01;0.14;-0.30;-329.56;-164.99;-29.68
934;-10.63;-31.10;65.27;-0.01;0.14;-0.30;315.28;1.47;170.87
943;-14.58;-2.08;39.52;-0.01;0.14;-0.30;787.36;215.53;334.67
952;-20.62;28.21;10.28;0.00;0.19;-0.37;1036.42;349.72;406.42
961;-13.59;43.25;-7.70;0.00;0.19;-0.37;839.58;334.18;356.23
969;-2.57;40.21;-18.21;0.00;0.19;-0.37;426.23;252.00;199.99
978;3.00;34.17;-20.32;0.05;0.28;-0.41;-5.46;173.46;96.39
987;4.28;24.59;-15.02;0.05;0.28;-0.41;-236.95;77.42;33.81
996;2.31;15.73;-5.48;0.05;0.28;-0.41;-235.62;-15.05;-28.49
1004;0.01;9.99;4.54;0.04;0.25;-0.40;-129.85;-91.70;-58.45
1013;-1.46;7.09;11.56;0.04;0.25;-0.40;-53.83;-107.87;-56.49
1022;-2.23;4.35;14.38;0.04;0.25;-0.40;-33.67;-76.16;-32.34
1031;-1.55;0.75;15.04;0.02;0.24;-0.39;-46.34;-23.52;-46.13
1040;-2.73;-0.66;13.40;0.02;0.24;-0.39;-10.99;28.14;-37.17
1048;-3.16;-1.11;10.57;0.02;0.24;-0.39;63.28;59.92;-3.64
1057;-3.70;0.78;7.38;0.04;0.25;-0.40;114.87;64.68;15.47
1066;-3.75;3.35;4.17;0.04;0.25;-0.40;122.78;36.68;24.36
1074;-2.45;5.28;2.99;0.04;0.25;-0.40;86.38;9.10;29.26
1083;-0.87;5.89;3.72;0.04;0.26;-0.41;33.88;-4.55;21.14
1092;-0.60;5.15;6.06;0.04;0.26;-0.41;-6.51;-12.60;9.73
1101;-0.37;3.15;8.48;0.04;0.26;-0.41;-26.32;-19.39;3.43
1110;0.01;1.59;10.32;0.04;0.25;-0.40;-25.83;-17.64;-0.35
1118;0.03;1.10;10.70;0.04;0.25;-0.40;-18.27;-8.05;-4.69
1127;-0.49;1.33;10.64;0.04;0.25;-0.40;-11.83;2.80;-4.83
1136;-0.89;1.87;9.94;0.04;0.25;-0.40;-3.22;6.16;0.07
1145;-1.33;2.10;9.27;0.04;0.25;-0.40;3.64;5.04;5.67
1153;-3.60;2.18;9.19;0.04;0.25;-0.40;4.97;0.98;10.15
1162;-1.93;2.45;9.64;0.04;0.25;-0.40;7.56;-4.83;12.11
1171;-1.99;2.52;10.26;0.04;0.25;-0.40;16.31;-9.03;13.72
1180;-2.09;2.44;12.73;0.04;0.25;-0.40;21.77;-9.45;13.51
1188;-2.33;2.61;11.30;0.05;0.26;-0.41;26.39;-7.70;11.76
1197;-2.68;2.27;11.18;0.05;0.26;-0.41;33.88;-4.83;12.18
1206;-2.45;1.74;10.85;0.05;0.26;-0.41;42.91;2.80;12.67
1215;-2.64;2.36;9.72;0.03;0.25;-0.43;33.95;8.05;13.58
1223;-2.61;2.81;8.97;0.03;0.25;-0.43;22.54;14.56;11.69
1232;-2.81;2.77;8.48;0.03;0.25;-0.43;6.65;17.01;7.07
1241;-2.78;2.48;8.53;0.03;0.26;-0.43;-8.89;14.91;5.32
1250;-2.72;2.35;8.85;0.03;0.26;-0.43;-13.30;12.60;5.60
1258;-2.71;2.35;9.17;0.03;0.26;-0.43;-6.44;10.01;8.54
1267;-2.57;2.54;9.12;0.03;0.27;-0.40;7.70;6.65;11.27
1276;-2.63;2.61;8.99;0.03;0.27;-0.40;18.27;3.22;13.86
1285;-2.48;2.55;8.88;0.03;0.27;-0.41;24.92;0.35;15.89
1293;-2.43;2.68;8.72;0.04;0.27;-0.41;27.86;-0.28;16.73
1302;-2.00;2.93;8.51;0.04;0.27;-0.41;22.68;2.87;16.94
1311;-1.87;3.37;8.38;0.04;0.27;-0.42;5.11;9.59;15.96
1320;-1.81;3.85;8.40;0.04;0.27;-0.42;-14.07;13.58;12.39
1328;-1.84;3.95;8.73;0.04;0.27;-0.42;-22.33;13.44;8.12
1337;-1.80;3.74;9.04;0.04;0.26;-0.42;-19.11;10.57;5.46
1346;-1.72;3.42;9.40;0.04;0.26;-0.42;-12.04;5.74;3.78
1355;-1.76;3.37;9.51;0.04;0.26;-0.42;-1.61;2.03;2.73
1363;-1.75;3.06;9.65;0.04;0.26;-0.40;5.88;1.26;2.94
1372;-1.78;2.84;9.58;0.04;0.26;-0.40;8.05;2.10;3.99
1381;-1.56;2.91;9.45;0.04;0.26;-0.40;8.68;3.36;4.90
1390;-1.71;3.07;9.06;0.03;0.26;-0.41;5.04;6.51;4.34
1398;-1.84;3.28;8.66;0.03;0.26;-0.41;-3.71;7.07;2.73
1407;-1.73;3.33;8.76;0.03;0.26;-0.41;-8.75;6.65;2.24
1416;-1.57;3.29;8.80;0.04;0.26;-0.41;-9.24;5.46;1.89
1425;-1.58;3.09;9.19;0.04;0.26;-0.41;-5.18;5.32;0.49
1433;-1.63;2.96;9.26;0.04;0.26;-0.41;-0.84;4.69;0.98
1442;-1.65;2.96;9.45;0.04;0.26;-0.42;4.27;4.90;1.75
1451;-1.70;2.91;9.38;0.04;0.26;-0.42;8.33;6.30;2.03
1460;-2.13;2.78;9.31;0.04;0.26;-0.42;11.34;5.67;3.29
1468;-2.08;2.88;9.02;0.04;0.27;-0.41;14.70;4.69;4.27
1477;-2.13;2.82;8.78;0.04;0.27;-0.41;12.88;6.02;3.85
1486;-2.20;2.68;8.58;0.04;0.27;-0.41;7.70;5.95;4.13
1494;-2.26;2.55;8.64;0.04;0.27;-0.41;5.88;5.88;5.25
1503;-2.18;2.49;8.99;0.04;0.27;-0.41;9.31;5.18;6.16
1512;-2.15;2.46;9.05;0.04;0.27;-0.41;16.38;4.83;6.37
1521;-2.18;2.47;9.32;0.04;0.27;-0.41;21.98;5.11;7.42
1530;-2.30;2.45;9.33;0.04;0.27;-0.41;26.32;4.90;8.26
1538;-2.28;2.34;9.11;0.04;0.27;-0.41;31.01;4.97;8.61
1547;-2.21;2.45;8.85;0.03;0.28;-0.42;31.78;6.51;9.80
1556;-2.11;2.53;8.54;0.03;0.28;-0.42;23.87;8.89;10.08
1564;-2.19;2.30;8.43;0.03;0.28;-0.42;10.92;11.69;10.29
1573;-2.22;2.22;8.84;0.04;0.28;-0.42;-0.28;13.37;12.39
1582;-2.16;2.06;9.21;0.04;0.28;-0.42;-3.43;14.56;14.14
1591;-2.18;2.08;9.63;0.04;0.28;-0.42;2.10;14.07;15.89
1600;-2.10;2.28;9.74;0.05;0.28;-0.41;14.21;12.18;17.57
1608;-2.20;2.12;9.96;0.05;0.28;-0.41;29.89;8.68;19.67
1617;-2.46;1.98;10.23;0.05;0.28;-0.41;46.55;6.09;22.12
1626;-2.35;1.72;10.25;0.05;0.28;-0.43;59.50;4.34;26.53
1635;-2.58;1.49;10.37;0.05;0.28;-0.43;71.75;5.67;30.10
1643;-2.81;1.31;10.20;0.05;0.28;-0.43;77.84;8.61;32.48
1652;-3.17;1.23;10.04;0.05;0.30;-0.42;76.09;14.00;34.58
1661;-3.14;1.19;9.79;0.05;0.30;-0.42;67.06;18.76;37.03
1670;-3.11;1.25;9.42;0.04;0.31;-0.43;60.55;22.96;37.59
1678;-3.12;1.19;9.40;0.04;0.31;-0.43;55.23;25.34;37.73
1687;-2.93;1.17;9.63;0.04;0.31;-0.43;52.50;23.80;38.92
1696;-2.85;1.13;9.81;0.05;0.32;-0.44;61.39;21.14;39.90
1705;-3.01;0.75;10.00;0.05;0.32;-0.44;75.25;16.38;42.70
1713;-3.01;0.70;9.97;0.05;0.32;-0.44;93.66;12.53;45.92
1722;-3.17;0.60;9.60;0.05;0.33;-0.43;109.34;10.78;47.53
1731;-3.55;0.57;10.95;0.05;0.33;-0.43;116.06;10.71;49.91
1740;-3.67;0.60;8.82;0.05;0.33;-0.43;112.21;11.83;52.92
1748;-3.70;0.58;8.72;0.05;0.36;-0.43;103.25;14.21;56.00
1757;-3.68;0.55;8.56;0.05;0.36;-0.43;92.61;15.54;57.40
1766;-3.47;0.38;8.71;0.05;0.36;-0.43;85.40;15.89;58.94
1775;-3.36;0.10;8.74;0.05;0.37;-0.45;86.52;11.69;62.37
1783;-3.09;-0.12;8.95;0.05;0.37;-0.45;95.76;5.46;63.63
1792;-2.92;-0.37;9.10;0.05;0.37;-0.45;109.55;-1.12;63.77
1801;-3.00;-0.62;9.21;0.06;0.39;-0.45;127.54;-7.56;64.68
1810;-2.99;-0.62;9.25;0.06;0.39;-0.45;144.13;-14.70;64.82
1818;-2.89;-0.64;9.14;0.06;0.39;-0.45;157.78;-20.93;64.26
1827;-2.54;-0.53;8.94;0.04;0.41;-0.47;164.99;-24.57;63.21
1836;-2.43;-0.24;8.83;0.04;0.41;-0.47;164.71;-23.52;61.81
1845;-2.09;-0.11;8.50;0.04;0.41;-0.47;155.19;-20.86;59.01
1853;-0.04;-0.71;8.38;0.04;0.46;-0.45;143.71;-18.48;54.53
1862;-1.93;-1.54;8.48;0.04;0.46;-0.45;135.17;-18.55;53.83
1871;-2.12;-2.22;8.84;0.04;0.46;-0.45;137.97;-21.77;56.21
1880;-2.11;-2.57;9.22;0.03;0.48;-0.47;152.04;-27.65;59.01
1889;-3.68;-2.83;9.22;0.03;0.48;-0.47;171.15;-34.44;61.25
1897;-2.02;-2.59;9.16;0.03;0.48;-0.47;185.01;-38.92;60.97
1906;-1.83;-2.53;8.74;0.03;0.52;-0.46;187.81;-43.40;59.15
1915;-1.87;-2.54;8.40;0.03;0.52;-0.46;176.19;-41.16;56.49
1924;-1.64;-3.02;8.19;0.03;0.52;-0.46;160.51;-38.50;53.41
1932;-1.49;-3.69;8.30;0.02;0.56;-0.47;151.76;-36.26;51.66
1941;-1.36;-4.02;8.38;0.02;0.56;-0.47;153.58;-34.65;49.98
1950;-1.48;-4.21;8.23;0.02;0.56;-0.47;158.27;-36.19;46.34
1959;-1.41;-4.77;8.15;0.02;0.59;-0.46;158.76;-37.31;42.42
1967;-1.38;-4.92;8.08;0.02;0.59;-0.46;159.32;-38.43;39.06
1976;-1.64;-5.28;8.28;0.02;0.59;-0.46;158.13;-38.36;35.98
1985;-1.59;-5.64;8.38;-0.00;0.62;-0.45;156.80;-36.96;35.00
1994;-1.98;-5.62;8.23;-0.00;0.62;-0.45;160.79;-38.64;35.84
2002;-2.31;-6.07;8.17;-0.00;0.62;-0.45;164.99;-41.79;37.10
2011;-2.33;-6.08;7.99;-0.01;0.65;-0.44;168.70;-47.04;38.78
2020;-2.08;-6.17;7.49;-0.01;0.65;-0.44;170.31;-54.11;38.64
2029;-1.96;-6.11;7.22;-0.01;0.65;-0.43;166.25;-54.88;35.84
2037;-1.79;-6.55;7.26;-0.01;0.68;-0.43;157.08;-52.01;34.79
2046;-1.64;-6.56;7.07;-0.01;0.68;-0.43;154.28;-49.28;32.20
2055;-1.58;-6.96;7.01;-0.02;0.71;-0.41;151.13;-41.65;27.30
2064;-1.74;-7.36;7.09;-0.02;0.71;-0.41;145.81;-33.53;25.90
2073;-2.07;-7.64;7.14;-0.02;0.71;-0.41;147.98;-25.41;27.16
2081;-1.96;-7.85;6.95;-0.02;0.74;-0.39;156.80;-22.68;26.60
2090;-2.24;-7.67;6.61;-0.02;0.74;-0.39;165.90;-24.01;21.91
2099;-2.59;-7.87;5.99;-0.02;0.74;-0.39;174.23;-30.10;20.65
2108;-2.53;-7.89;5.52;-0.02;0.78;-0.39;184.38;-36.82;19.18
2116;-2.44;-8.00;5.05;-0.02;0.78;-0.39;190.96;-44.31;13.86
2125;-2.25;-7.88;4.11;-0.02;0.78;-0.39;184.17;-45.71;11.97
2134;-2.24;-7.85;3.75;-0.03;0.81;-0.36;167.30;-44.38;12.81
2143;-2.04;-7.84;3.46;-0.03;0.81;-0.36;127.40;-37.52;13.86
2152;-1.90;-8.24;3.47;-0.03;0.81;-0.36;120.47;-31.78;15.12
2160;-1.97;-8.48;4.03;-0.02;0.83;-0.34;109.41;-32.27;14.56
2169;-2.09;-9.05;4.44;-0.02;0.83;-0.34;113.47;-33.32;13.09
2178;-1.98;-9.20;4.85;-0.02;0.83;-0.34;122.01;-29.19;13.72
2187;-1.66;-8.93;4.96;-0.03;0.85;-0.31;134.47;-27.37;10.92
2195;-1.66;-8.74;4.72;-0.03;0.85;-0.31;143.15;-19.81;7.63
2204;-1.36;-8.63;3.92;-0.03;0.85;-0.31;144.62;-11.76;0.21
2213;-1.26;-8.49;2.97;-0.03;0.86;-0.30;134.33;-7.21;-7.42
2222;-1.56;-8.65;2.48;-0.03;0.86;-0.30;110.95;-7.63;-12.88
2231;-1.72;-9.15;2.55;-0.03;0.86;-0.30;91.14;-11.97;-13.65
2239;-2.02;-9.56;3.07;-0.04;0.87;-0.27;79.52;-13.86;-10.01
2248;-1.76;-9.81;3.60;-0.04;0.87;-0.27;79.59;-10.50;-8.54
2257;-1.84;-9.67;3.72;-0.04;0.87;-0.27;85.89;-8.68;-10.71
2266;-1.72;-9.51;3.54;-0.04;0.90;-0.27;92.75;-4.62;-12.53
2274;-1.75;-9.46;3.43;-0.04;0.90;-0.27;98.28;0.84;-11.20
2283;-1.69;-9.22;3.04;-0.04;0.90;-0.27;104.37;4.76;-10.85
2292;-1.73;-9.17;2.27;-0.04;0.89;-0.26;108.43;5.60;-13.02
2301;-1.72;-9.08;1.48;-0.04;0.89;-0.26;106.40;4.55;-17.22
2310;-2.02;-9.10;1.21;-0.04;0.89;-0.26;95.62;1.19;-22.54
2318;-2.10;-9.43;1.05;-0.04;0.91;-0.23;80.43;-4.27;-25.48
2327;-2.20;-9.65;1.11;-0.04;0.91;-0.23;69.65;-6.93;-23.87
2336;-2.38;-10.10;1.43;-0.04;0.91;-0.23;61.11;-6.37;-18.83
2345;-2.25;-10.11;1.56;-0.05;0.92;-0.23;56.91;-2.73;-10.15
2354;-1.90;-9.91;1.28;-0.05;0.92;-0.23;51.80;2.80;-5.60
2362;-1.91;-10.16;1.67;-0.05;0.93;-0.19;47.32;5.88;-4.97
2371;-1.84;-10.24;1.45;-0.05;0.93;-0.19;45.29;10.71;-2.45
2380;-1.90;-10.31;1.51;-0.05;0.93;-0.19;42.70;18.34;1.19
2389;-1.77;-10.20;1.51;-0.05;0.92;-0.20;42.21;21.28;1.61
2397;-1.83;-10.24;1.58;-0.05;0.92;-0.20;49.14;17.99;-2.52
2406;-1.99;-10.60;1.23;-0.05;0.92;-0.20;62.72;12.04;-6.51
2415;-1.91;-10.65;0.56;-0.04;0.93;-0.20;73.64;5.74;-8.33
2424;-1.90;-10.55;0.48;-0.04;0.93;-0.20;74.69;-0.42;-9.87
2432;-2.01;-10.57;0.42;-0.04;0.93;-0.20;71.12;-2.31;-8.47
2441;-2.08;-10.67;0.45;-0.04;0.94;-0.17;63.35;0.63;-4.34
2450;-1.87;-10.86;0.24;-0.04;0.94;-0.17;52.22;7.77;2.38
2459;-1.92;-10.99;0.27;-0.04;0.94;-0.17;39.55;14.14;8.26
2467;-2.23;-11.37;0.34;-0.05;0.94;-0.16;32.69;19.88;15.33
2476;-1.93;-11.46;0.14;-0.05;0.94;-0.16;27.37;25.34;22.75
2485;-1.77;-11.39;0.05;-0.05;0.94;-0.16;24.08;25.83;27.51
2494;-1.63;-11.36;0.11;-0.05;0.94;-0.15;25.76;21.91;29.82
2502;-1.47;-11.28;0.07;-0.05;0.94;-0.15;28.70;16.80;30.24
2511;-1.28;-11.33;0.06;-0.05;0.94;-0.15;28.98;11.48;30.59
2520;-1.00;-11.21;-0.11;-0.04;0.95;-0.16;28.70;7.07;31.78
2529;-0.85;-10.95;-0.34;-0.04;0.95;-0.16;26.11;3.57;33.32
2537;-0.59;-10.90;-0.56;-0.04;0.95;-0.16;21.98;1.19;33.46
2546;-0.88;-10.72;-0.27;-0.02;0.95;-0.15;16.03;1.33;33.25
2555;-0.85;-10.28;-0.34;-0.02;0.95;-0.15;10.29;6.02;38.36
2564;-0.60;-9.81;-0.60;-0.02;0.95;-0.15;3.99;14.14;44.38
2573;-0.63;-9.17;-0.80;-0.02;0.94;-0.15;-4.69;17.22;47.60
2581;-0.57;-8.60;-0.85;-0.02;0.94;-0.15;-11.20;16.66;46.97
2590;-0.62;-8.44;-0.78;-0.02;0.94;-0.15;-13.51;14.21;43.19
2599;-0.60;-8.38;-0.75;-0.02;0.93;-0.15;-10.01;10.22;37.59
2608;-0.60;-8.13;-0.88;-0.02;0.93;-0.15;-4.13;6.37;29.75
2616;-0.71;-7.95;-0.77;-0.02;0.93;-0.15;-0.28;4.90;21.91
2625;-0.85;-8.02;-0.90;-0.01;0.94;-0.15;2.17;4.13;13.23
2634;-0.84;-8.11;-0.77;-0.01;0.94;-0.15;2.80;4.34;6.58
2643;-1.28;-8.19;-0.71;-0.01;0.94;-0.15;0.63;6.30;1.61
2651;-1.23;-8.36;-0.65;-0.01;0.94;-0.15;-3.50;8.47;-2.87
2660;-1.49;-8.72;-0.54;-0.01;0.94;-0.15;-6.37;10.36;-4.97
2669;-1.68;-8.99;-0.38;-0.01;0.94;-0.15;-6.58;11.48;-6.02
2678;-1.82;-9.01;-0.29;-0.00;0.93;-0.15;-4.27;11.69;-5.60
2686;-2.08;-9.17;-0.24;-0.00;0.93;-0.15;-0.56;10.15;-4.62
2695;-2.07;-9.18;-0.08;-0.00;0.93;-0.15;2.17;8.61;-4.13
2704;-2.12;-9.33;-0.18;-0.01;0.94;-0.14;3.43;8.19;-4.62
2713;-2.02;-9.45;-0.22;-0.01;0.94;-0.14;3.29;8.47;-4.76
2722;-1.99;-9.54;-0.19;-0.01;0.94;-0.15;2.17;9.59;-4.20
2730;-2.17;-9.65;-0.19;-0.01;0.94;-0.15;1.33;9.45;-3.71
2739;-2.12;-9.73;-0.27;-0.01;0.94;-0.15;1.89;8.68;-3.36
2748;-2.10;-9.71;-0.45;0.01;0.93;-0.15;1.47;9.03;-3.43
2757;-2.07;-9.78;-0.54;0.01;0.93;-0.15;-0.28;8.05;-3.36
2765;-1.95;-9.85;-0.38;0.01;0.93;-0.15;-3.01;7.84;-2.87
2774;-1.96;-9.84;-0.53;-0.00;0.94;-0.16;-5.46;7.28;-1.54
2783;-1.88;-9.81;-0.27;-0.00;0.94;-0.16;-8.68;6.65;-1.26
2792;-1.74;-9.83;-0.17;-0.00;0.94;-0.16;-8.33;5.11;-2.24
2800;-1.50;-9.76;0.00;-0.01;0.94;-0.15;-3.78;3.36;-4.69
2809;-1.57;-9.87;0.11;-0.01;0.94;-0.15;2.03;1.68;-6.72
2818;-1.51;-9.91;0.06;-0.01;0.94;-0.15;6.09;2.03;-8.82
2827;-1.55;-9.93;-0.04;-0.01;0.95;-0.14;6.37;3.99;-9.31
2835;-1.56;-10.13;-0.28;-0.01;0.95;-0.14;3.85;5.11;-8.75
2844;-1.63;-10.12;-0.29;-0.01;0.95;-0.14;-17.71;5.60;-6.72
2853;-1.74;-10.11;-0.43;-0.01;0.93;-0.13;-4.48;4.06;-4.97
2862;-1.66;-10.03;-0.50;-0.01;0.93;-0.13;-6.86;1.47;-4.06
2870;-1.57;-10.16;-0.07;-0.01;0.93;-0.13;-9.45;1.61;-3.36
2879;-1.58;-10.09;-0.04;-0.01;0.94;-0.13;-9.80;5.18;-2.03
2888;-1.64;-10.15;0.06;-0.01;0.94;-0.13;-8.47;7.42;-2.17
2897;-1.52;-10.21;0.28;-0.01;0.94;-0.13;-5.39;7.77;-3.99
2905;-1.28;-10.33;0.24;-0.00;0.94;-0.15;-2.10;8.54;-5.11
2914;-1.29;-10.42;0.28;-0.00;0.94;-0.15;1.26;10.15;-5.25
2923;-1.16;-10.48;0.04;-0.00;0.94;-0.15;2.59;10.43;-4.90
2932;-1.06;-10.47;-0.20;-0.01;0.95;-0.15;2.59;10.29;-4.48
2940;-1.11;-10.44;-0.01;-0.01;0.95;-0.15;2.03;9.24;-4.69
2949;-1.08;-10.42;-0.09;-0.01;0.95;-0.15;1.75;8.19;-4.55
2958;-0.90;-10.43;-0.10;-0.02;0.94;-0.14;1.47;7.77;-4.55
2967;-0.78;-10.38;0.01;-0.02;0.94;-0.14;0.14;7.63;-4.55
2976;-0.72;-10.38;0.07;-0.02;0.94;-0.14;-0.98;8.26;-3.71
2984;-0.60;-10.37;0.09;-0.01;0.94;-0.15;-2.80;11.27;-1.47
2993;-0.37;-10.23;-0.01;-0.01;0.94;-0.15;-6.44;14.42;0.00
3002;-0.12;-10.21;-0.08;-0.01;0.94;-0.15;-10.22;17.22;1.26
3011;-0.02;-10.16;-0.15;-0.01;0.93;-0.14;-13.16;18.62;1.19
3019;0.08;-10.22;0.03;-0.01;0.93;-0.14;-16.45;18.90;-0.84
3028;0.13;-10.33;0.13;-0.01;0.93;-0.14;-18.69;19.32;-2.73
3037;0.32;-10.47;0.37;-0.01;0.94;-0.15;-21.14;21.70;-2.94
3046;0.42;-10.61;0.68;-0.01;0.94;-0.15;-22.33;25.41;-3.57
3054;0.50;-10.65;0.65;-0.01;0.94;-0.15;-21.49;29.12;-2.10
3063;0.72;-10.84;0.63;-0.01;0.93;-0.15;-18.34;30.52;-0.63
3072;0.88;-10.81;0.37;-0.01;0.93;-0.15;-14.49;30.59;0.00
3081;1.15;-10.69;0.17;-0.01;0.94;-0.14;-12.53;29.96;-1.12
3089;1.16;-10.49;0.01;-0.02;0.94;-0.14;-9.45;29.40;-0.98
3098;1.18;-10.23;-0.08;-0.02;0.94;-0.14;-10.29;28.63;-2.87
3107;1.45;-10.13;-0.34;-0.02;0.94;-0.15;-15.89;24.85;-4.83
3116;1.58;-9.91;-0.59;-0.02;0.94;-0.15;-23.31;21.00;-6.02
3124;2.00;-10.00;-0.43;-0.02;0.94;-0.15;-33.25;16.52;-9.59
3133;2.28;-10.14;-0.09;-0.01;0.93;-0.16;-42.28;10.99;-13.51
3142;2.74;-10.20;0.19;-0.01;0.93;-0.16;-45.29;7.28;-16.31
3151;3.57;-10.21;0.11;-0.01;0.93;-0.16;-45.64;5.04;-18.13
3159;4.01;-10.37;0.40;-0.01;0.93;-0.17;-51.80;3.15;-22.68
3168;4.42;-10.60;0.98;-0.01;0.93;-0.17;-63.84;-3.85;-27.51
3177;5.39;-10.57;1.33;-0.01;0.93;-0.17;-82.60;-7.84;-28.14
3186;5.97;-10.47;2.18;-0.01;0.93;-0.17;-105.70;-8.61;-25.62
3195;7.33;-10.15;2.10;-0.01;0.93;-0.17;-148.33;-10.85;-20.58
3203;9.40;-9.08;1.70;-0.01;0.93;-0.17;-224.77;-11.69;-13.02
3212;10.85;-6.68;1.02;-0.02;0.91;-0.22;-337.47;7.91;-0.56
3221;11.91;-1.08;1.23;-0.02;0.91;-0.22;-513.66;44.59;13.16
3230;11.92;6.96;3.57;-0.02;0.91;-0.22;-762.93;123.34;18.48
3239;12.22;19.33;9.20;0.00;0.81;-0.32;-1070.02;185.64;8.96
3247;13.60;30.53;17.00;0.00;0.81;-0.32;-1275.96;180.81;-76.37
3256;8.60;34.41;10.61;0.00;0.81;-0.32;-1301.93;144.48;-329.98
3265;2.55;31.07;15.60;0.00;0.61;-0.45;-1145.76;190.89;-579.25
3274;-9.97;28.39;11.33;0.00;0.61;-0.45;-1007.86;207.27;-755.16
3282;-28.41;29.19;13.57;0.00;0.61;-0.45;-928.13;329.14;-794.85
3291;-48.10;21.77;17.33;0.05;0.42;-0.45;-1077.51;319.34;-659.12
3300;-52.37;14.61;24.61;0.05;0.42;-0.45;-1315.16;149.45;-440.93
3309;-49.36;11.34;41.33;0.05;0.42;-0.45;-1381.52;-86.80;-271.32
3318;-45.96;-8.71;65.12;0.09;0.21;-0.35;-1151.15;-245.28;-191.31
3326;-38.39;-38.08;78.45;0.09;0.21;-0.35;-727.93;-228.62;-97.02
3335;-20.14;-47.44;69.94;0.09;0.21;-0.35;-75.74;-82.18;47.60
3344;-12.30;-22.95;42.68;0.06;0.13;-0.27;517.51;100.80;209.23
3353;-18.44;13.47;14.18;0.06;0.13;-0.27;955.85;216.16;374.78
3362;-19.83;44.84;-8.53;0.06;0.13;-0.27;1053.15;174.30;383.74
3370;-5.85;44.86;-20.85;0.08;0.20;-0.37;675.01;39.48;310.45
3379;5.62;38.71;-20.52;0.08;0.20;-0.37;188.86;19.04;183.19
3388;8.02;31.59;-13.72;0.08;0.20;-0.37;-187.88;40.95;78.89
3397;5.04;21.32;-4.15;0.07;0.25;-0.40;-354.27;32.62;19.25
3405;0.62;12.96;4.56;0.07;0.25;-0.40;-268.17;-25.20;-29.05
3414;-1.73;7.36;10.46;0.07;0.25;-0.40;-98.07;-85.33;-45.85
3423;-2.57;3.91;13.12;0.06;0.20;-0.36;20.02;-94.22;-20.72
3432;-3.14;2.95;15.04;0.06;0.20;-0.36;28.14;-60.55;-12.74
3440;-1.94;1.92;12.40;0.06;0.23;-0.38;56.70;8.82;2.52
3449;-2.63;2.07;8.71;0.06;0.23;-0.38;58.31;39.13;15.61
3458;-2.60;4.11;5.38;0.06;0.23;-0.38;75.67;57.12;15.05
3467;-2.55;5.80;2.84;0.07;0.23;-0.38;80.92;51.59;12.81
3475;-2.58;6.07;1.44;0.07;0.23;-0.38;47.11;23.10;8.82
3484;-1.90;5.94;3.16;0.07;0.23;-0.38;3.15;-2.24;8.68
3493;-0.90;4.86;6.14;0.07;0.22;-0.40;-31.57;-20.58;8.75
3502;0.32;4.34;8.96;0.07;0.22;-0.40;-42.70;-25.90;-13.58
3510;0.47;4.01;11.12;0.07;0.22;-0.40;14.14;-14.98;-8.82
3519;0.67;2.46;9.47;0.07;0.23;-0.38;18.20;-4.06;4.41
3528;0.04;2.20;10.11;0.07;0.23;-0.38;22.96;11.41;13.02
3537;-0.16;2.11;9.67;0.07;0.23;-0.38;16.38;20.65;18.41
3545;-0.18;2.17;9.30;0.08;0.22;-0.39;14.00;25.06;17.64
3554;-0.48;2.50;7.39;0.08;0.22;-0.39;15.75;18.20;19.04
3563;-0.71;3.17;9.22;0.08;0.22;-0.39;20.79;6.93;23.38
3572;-0.44;4.08;9.12;0.07;0.23;-0.38;26.46;-2.94;24.15
3580;-0.56;4.54;9.58;0.07;0.23;-0.38;24.43;-5.74;18.62
3589;-0.70;4.81;9.95;0.07;0.23;-0.38;14.35;-4.83;14.63
3598;-1.05;4.66;10.06;0.06;0.23;-0.40;10.01;-3.36;8.26
3607;-1.52;3.80;10.36;0.06;0.23;-0.40;7.14;0.14;2.52
3615;-2.10;3.24;10.70;0.06;0.23;-0.40;2.94;4.41;2.17
3624;-2.28;2.97;11.07;0.07;0.24;-0.39;-0.77;8.40;0.98
3633;-2.65;2.50;11.05;0.07;0.24;-0.39;-3.50;13.16;-1.19
3642;-2.80;2.30;10.96;0.07;0.24;-0.39;-3.15;17.15;0.28
3650;-2.63;2.57;10.57;0.06;0.23;-0.40;2.45;22.40;2.87
3659;-2.77;2.66;9.84;0.06;0.23;-0.40;11.90;24.78;3.50
3668;-2.83;2.73;9.17;0.06;0.23;-0.40;21.91;23.73;9.31
3677;-2.92;2.84;8.65;0.07;0.23;-0.40;28.07;17.64;17.15
3685;-2.58;2.93;8.35;0.07;0.23;-0.40;34.93;10.43;22.40
3694;-2.25;3.34;7.95;0.07;0.23;-0.40;40.53;4.76;23.38
3703;-2.05;3.84;7.68;0.07;0.23;-0.40;36.61;4.34;20.37
3712;-1.93;4.11;7.44;0.07;0.23;-0.40;21.21;7.70;17.29
3720;-1.81;3.98;7.35;0.07;0.23;-0.40;2.24;11.13;13.09
3729;-1.83;3.49;7.45;0.07;0.25;-0.39;-12.67;12.88;8.75
3738;-1.90;3.08;7.85;0.07;0.25;-0.39;-20.58;11.69;8.12
3747;-1.96;2.68;8.54;0.07;0.25;-0.39;-18.62;10.08;9.87
3755;-1.63;2.89;9.30;0.08;0.24;-0.39;-7.28;7.35;12.95
3764;-1.36;3.38;9.30;0.08;0.24;-0.39;11.13;4.55;15.19
3773;-1.15;3.93;9.23;0.08;0.24;-0.39;28.98;2.66;12.88
3782;-1.01;4.10;8.66;0.08;0.24;-0.39;38.99;-0.07;10.50
3790;-1.08;4.14;7.98;0.08;0.24;-0.39;34.79;-0.28;6.79
3799;-1.04;4.09;7.65;0.08;0.24;-0.39;18.06;2.24;3.29
3808;-1.29;3.79;7.74;0.07;0.24;-0.39;-3.15;6.09;0.63
3817;-1.34;3.35;8.24;0.07;0.24;-0.39;-19.32;6.16;0.56
3825;-1.28;3.15;8.53;0.08;0.25;-0.40;-17.08;3.71;1.61
3834;-1.21;3.07;8.79;0.08;0.25;-0.40;-5.11;0.49;2.66
3843;-1.14;3.10;9.08;0.08;0.25;-0.40;5.74;-1.05;4.69
3852;-1.06;3.30;8.94;0.07;0.25;-0.39;12.88;0.07;6.30
3860;-1.10;3.32;8.87;0.07;0.25;-0.39;15.96;1.12;5.32
3869;-1.35;3.34;8.71;0.07;0.25;-0.39;17.29;1.12;4.27
3878;-1.41;3.32;8.43;0.07;0.24;-0.40;16.73;1.19;2.59
3886;-1.59;3.42;8.30;0.07;0.24;-0.40;8.47;3.99;0.56
3895;-1.65;3.21;8.38;0.07;0.24;-0.40;-7.35;4.90;-0.14
3904;-1.65;3.02;8.73;0.07;0.24;-0.39;-16.10;5.11;0.00
3913;-1.63;2.94;9.02;0.07;0.24;-0.39;-15.61;4.34;0.63
3922;-1.57;3.00;9.30;0.07;0.24;-0.39;-6.86;3.43;2.17
3930;-1.69;3.14;9.38;0.08;0.25;-0.40;3.92;2.45;3.71
3939;-1.63;3.25;9.06;0.08;0.25;-0.40;13.02;1.05;4.83
3948;-1.65;3.27;8.74;0.08;0.25;-0.40;18.06;-0.49;3.92
3957;-1.90;3.09;8.66;0.07;0.25;-0.40;20.09;-2.03;4.06
3965;-1.93;2.92;8.59;0.07;0.25;-0.40;19.11;-3.43;4.69
3974;-1.83;2.98;8.51;0.07;0.25;-0.40;12.74;-2.73;4.48
3983;-1.75;3.12;8.70;0.07;0.25;-0.40;3.99;-0.07;4.69
3992;-1.95;3.19;8.79;0.07;0.25;-0.40;-2.66;2.73;5.18
4000;-1.56;3.33;8.93;0.07;0.25;-0.40;-3.01;2.10;4.20
4009;-1.44;3.52;8.69;0.08;0.26;-0.41;3.57;0.21;3.78
4018;-1.34;3.62;8.71;0.08;0.26;-0.41;9.10;-1.05;2.87
4027;-1.27;3.64;8.51;0.08;0.26;-0.41;10.57;-1.68;2.31
4035;-1.26;3.51;8.54;0.08;0.25;-0.40;8.89;-1.82;2.17
4044;-1.31;3.45;8.75;0.08;0.25;-0.40;6.79;-2.38;2.10
4053;-1.46;3.25;9.13;0.08;0.25;-0.40;5.11;-1.96;2.38
4062;-1.51;3.15;9.47;0.07;0.25;-0.40;2.31;1.12;3.01
4070;-1.62;3.11;9.69;0.07;0.25;-0.40;-0.49;4.34;3.57
4079;-1.55;3.12;9.73;0.07;0.25;-0.40;1.12;6.93;4.55
4088;-1.60;3.22;9.73;0.07;0.25;-0.40;7.56;8.12;4.13
4097;-1.41;3.27;9.55;0.07;0.25;-0.40;17.22;7.35;4.06
4105;-1.47;3.29;9.36;0.07;0.25;-0.40;26.11;6.79;4.20
4114;-1.41;3.36;9.22;0.07;0.26;-0.40;31.78;5.25;3.64
4123;-1.66;3.01;9.07;0.07;0.26;-0.40;33.18;5.32;2.10
4132;-1.95;2.86;8.92;0.07;0.26;-0.40;30.10;4.83;3.71
4141;-2.10;2.63;9.04;0.07;0.26;-0.41;24.36;4.27;5.74
4149;-2.37;2.34;9.20;0.07;0.26;-0.41;18.34;6.16;7.91
4158;-2.57;1.84;9.53;0.07;0.26;-0.41;11.83;9.80;10.99
4167;-2.58;1.61;9.78;0.07;0.27;-0.40;6.86;12.32;15.75
4176;-2.76;1.47;10.32;0.07;0.27;-0.40;9.17;14.98;21.70
4184;-2.68;1.53;10.67;0.07;0.26;-0.40;22.89;15.96;27.65
4193;-2.80;1.87;11.03;0.09;0.26;-0.40;43.68;14.91;32.55
4202;-2.64;2.21;11.09;0.09;0.26;-0.40;67.97;11.34;36.05
4211;-2.46;2.40;10.72;0.09;0.27;-0.42;106.89;7.00;35.98
4219;-2.39;4.12;12.24;0.09;0.27;-0.42;107.10;7.84;32.55
4228;-2.48;2.59;9.65;0.09;0.27;-0.42;113.89;11.83;32.48
4237;-2.60;2.50;9.19;0.08;0.30;-0.43;111.30;14.42;31.78
4246;-2.61;2.23;8.88;0.08;0.30;-0.43;100.66;18.48;30.94
4254;-2.72;1.98;8.65;0.08;0.30;-0.43;85.26;24.57;31.50
4263;-2.98;1.70;9.02;0.08;0.31;-0.43;70.35;26.60;35.00
4272;-3.23;1.23;9.46;0.08;0.31;-0.43;60.55;28.56;39.69
4280;-3.19;0.78;9.91;0.08;0.31;-0.43;60.55;28.98;43.61
4289;-3.03;0.57;10.55;0.08;0.32;-0.43;76.16;22.61;48.65
4298;-2.90;0.64;10.67;0.08;0.32;-0.43;106.26;12.04;51.10
4307;-2.51;0.54;10.52;0.08;0.32;-0.43;140.98;3.99;50.61
4315;-2.36;1.02;10.21;0.08;0.34;-0.44;169.96;-0.63;48.79
4324;-2.44;1.13;9.54;0.08;0.34;-0.44;187.25;-2.17;46.83
4333;-2.40;1.18;8.84;0.08;0.34;-0.44;184.24;-0.35;46.48
4342;-2.51;0.95;8.36;0.08;0.38;-0.44;169.75;3.29;47.74
4351;-2.48;0.62;8.07;0.08;0.38;-0.44;149.80;8.26;51.80
4359;-2.73;-0.01;8.28;0.08;0.38;-0.44;136.22;9.10;55.86
4368;-2.78;-0.50;8.66;0.08;0.42;-0.44;133.07;7.14;59.22
4377;-2.87;-0.88;9.31;0.08;0.42;-0.44;140.21;2.31;62.58
4386;-2.96;-1.21;9.61;0.08;0.42;-0.44;153.44;-4.90;65.52
4394;-2.76;-1.51;9.60;0.08;0.44;-0.45;173.67;-16.52;66.78
4403;-2.16;-1.49;9.10;0.08;0.44;-0.45;191.03;-22.82;66.01
4412;-2.04;-1.47;8.79;0.08;0.44;-0.45;201.32;-23.94;63.00
4421;-2.02;-1.41;8.38;0.08;0.47;-0.46;201.32;-23.80;56.98
4429;-1.90;-1.67;8.25;0.08;0.47;-0.46;193.76;-20.58;53.55
4438;-1.84;-2.02;8.05;0.08;0.47;-0.46;183.96;-15.26;53.13
4447;-1.90;-2.18;8.02;0.08;0.51;-0.46;173.11;-12.04;52.15
4456;-1.79;-2.64;7.82;0.08;0.51;-0.46;163.31;-11.62;51.59
4464;-1.82;-3.22;8.03;0.08;0.51;-0.46;151.48;-13.09;52.71
4473;-1.65;-3.77;8.31;0.07;0.55;-0.46;141.96;-15.33;56.42
4482;-1.65;-4.16;8.76;0.07;0.55;-0.46;138.88;-19.95;59.71
4491;-1.71;-4.85;9.43;0.07;0.55;-0.46;144.90;-27.44;60.34
4500;-1.79;-5.00;9.76;0.07;0.58;-0.44;165.83;-36.19;58.45
4508;-1.80;-4.82;9.69;0.07;0.58;-0.44;190.54;-49.98;53.13
4517;-1.60;-4.82;9.27;0.07;0.58;-0.44;208.81;-60.83;41.09
4526;-1.06;-4.93;8.48;0.06;0.62;-0.43;215.04;-64.96;31.85
4535;-0.88;-5.05;7.85;0.06;0.62;-0.43;209.37;-60.06;29.05
4543;-0.89;-5.20;7.42;0.06;0.62;-0.43;195.86;-52.36;28.14
4552;-0.71;-5.46;6.74;0.05;0.66;-0.43;181.65;-44.38;25.97
4561;-0.93;-5.80;6.63;0.05;0.66;-0.43;167.51;-34.58;26.18
4570;-1.29;-6.20;6.63;0.05;0.69;-0.41;152.60;-31.15;27.23
4578;-1.37;-6.65;6.62;0.05;0.69;-0.41;147.35;-33.60;29.40
4587;-1.59;-6.93;6.85;0.05;0.69;-0.41;151.76;-38.08;30.59
4596;-1.26;-7.15;6.62;0.04;0.72;-0.41;160.93;-45.85;30.03
4605;-0.89;-7.15;6.33;0.04;0.72;-0.41;169.61;-53.20;26.32
4614;-0.75;-7.13;6.13;0.04;0.72;-0.41;170.45;-57.26;21.28
4622;-0.44;-7.23;5.92;0.03;0.74;-0.39;163.45;-57.05;15.47
4631;-0.56;-7.53;5.89;0.03;0.74;-0.39;147.91;-46.90;10.99
4640;-0.57;-7.46;5.39;0.03;0.74;-0.39;130.06;-37.87;8.96
4649;-0.89;-7.69;5.32;0.03;0.78;-0.37;112.91;-32.76;7.77
4657;-1.17;-7.92;5.23;0.03;0.78;-0.37;104.93;-29.54;8.26
4666;-1.21;-8.23;5.18;0.03;0.78;-0.37;100.59;-29.68;9.87
4675;-1.03;-8.45;5.35;0.03;0.79;-0.36;100.59;-31.71;10.08
4684;-0.97;-8.76;5.30;0.03;0.79;-0.36;104.86;-33.81;10.57
4692;-1.10;-8.92;5.40;0.03;0.79;-0.36;112.70;-35.84;10.64
4701;-0.67;-8.93;5.10;0.03;0.81;-0.35;122.29;-36.82;9.52
4710;-0.47;-8.80;4.58;0.03;0.81;-0.35;127.96;-34.44;8.05
4719;-0.37;-8.62;4.05;0.03;0.81;-0.35;123.06;-30.52;6.16
4727;-0.29;-8.33;3.78;0.02;0.83;-0.33;109.13;-26.60;3.92
4736;-0.17;-8.28;3.74;0.02;0.83;-0.33;91.49;-23.66;0.77
4745;-0.26;-8.62;3.89;0.02;0.83;-0.33;74.06;-18.69;-3.01
4754;-0.24;-8.95;4.14;0.00;0.84;-0.31;60.13;-11.34;-3.99
4762;-0.37;-9.29;4.27;0.00;0.84;-0.31;54.95;-5.39;-4.83
4771;-0.56;-9.76;4.33;0.00;0.84;-0.31;57.40;-2.52;-5.53
4780;-0.72;-9.88;4.36;0.02;0.85;-0.31;65.38;-1.68;-5.60
4789;-0.70;-9.96;4.26;0.02;0.85;-0.31;79.10;-3.78;-5.60
4797;-0.50;-9.71;4.08;0.02;0.85;-0.31;91.63;-5.32;-8.61
4806;-0.74;-9.47;3.92;0.01;0.86;-0.29;97.72;-6.09;-14.42
4815;-0.98;-9.50;3.55;0.01;0.86;-0.29;97.16;-3.36;-18.62
4824;-1.05;-9.29;3.35;0.01;0.86;-0.29;88.76;-1.33;-21.49
4833;-1.42;-9.58;3.31;0.02;0.87;-0.27;81.06;2.17;-20.37
4841;-1.56;-9.71;3.45;0.02;0.87;-0.27;76.02;5.32;-16.52
4850;-1.51;-9.83;3.10;0.02;0.87;-0.27;76.44;8.89;-14.49
4859;-1.72;-9.98;2.96;-0.01;0.88;-0.26;78.40;11.27;-14.07
4868;-1.94;-9.98;2.45;-0.01;0.88;-0.26;78.68;10.71;-16.31
4876;-2.12;-10.11;2.02;-0.01;0.88;-0.26;79.03;6.16;-19.60
4885;-2.30;-10.13;1.79;-0.01;0.90;-0.25;74.90;-2.10;-21.14
4894;-2.33;-10.19;1.69;-0.01;0.90;-0.25;67.34;-8.33;-19.95
4903;-2.28;-10.30;1.85;-0.01;0.91;-0.22;58.94;-13.79;-15.54
4912;-2.13;-10.11;2.12;-0.02;0.91;-0.22;49.35;-13.02;-10.50
4920;-2.20;-10.10;2.86;-0.02;0.91;-0.22;38.43;-12.95;-4.55
4929;-2.05;-10.01;3.41;-0.02;0.90;-0.23;31.29;-7.56;1.40
4938;-1.85;-9.76;3.21;-0.02;0.90;-0.23;32.27;0.21;5.53
4946;-1.74;-9.96;2.92;-0.02;0.90;-0.23;36.12;10.57;4.06
4955;-1.86;-9.93;2.43;-0.02;0.90;-0.23;40.46;17.36;-0.14
4964;-1.82;-9.68;1.94;-0.02;0.90;-0.23;47.32;16.87;-5.39
4973;-1.82;-9.68;1.26;-0.02;0.90;-0.23;51.87;11.62;-10.29
4981;-2.02;-9.81;1.15;-0.01;0.91;-0.22;52.50;4.27;-14.07
4990;-2.28;-9.82;1.11;-0.01;0.91;-0.22;50.12;-1.89;-15.40
4999;-2.33;-9.79;1.03;-0.01;0.91;-0.22;47.18;-3.78;-13.79
5008;-2.50;-9.63;1.18;-0.02;0.91;-0.21;41.86;-3.92;-11.41
5017;-2.60;-9.90;1.46;-0.02;0.91;-0.21;35.84;-1.54;-5.32
5025;-2.58;-9.78;1.26;-0.02;0.91;-0.21;33.04;6.02;-0.28
5034;-2.46;-9.55;1.18;-0.02;0.92;-0.21;30.94;15.82;2.24
5043;-2.48;-9.37;0.93;-0.02;0.92;-0.21;30.52;22.26;2.94
5052;-2.44;-9.15;0.51;-0.02;0.92;-0.21;32.48;24.50;-1.89
5060;-2.43;-9.25;0.09;-0.01;0.93;-0.19;36.26;23.52;-8.68
5069;-2.35;-9.47;-0.03;-0.01;0.93;-0.19;40.39;16.17;-12.88
5078;-2.57;-9.66;-0.06;-0.01;0.93;-0.19;46.55;7.14;-16.87
5087;-2.57;-9.73;-0.17;-0.02;0.93;-0.19;54.25;-0.84;-18.97
5095;-2.56;-9.72;-0.20;-0.02;0.93;-0.19;56.91;-4.90;-19.67
5104;-2.51;-9.66;-0.06;-0.02;0.93;-0.19;51.59;-5.04;-16.94
5113;-2.51;-9.73;0.00;-0.02;0.93;-0.17;42.70;-2.38;-10.57
5122;-2.39;-9.76;0.05;-0.02;0.93;-0.17;34.37;3.01;-3.15
5130;-2.18;-9.72;0.01;-0.02;0.93;-0.17;26.11;8.61;3.92
5139;-2.01;-9.58;-0.03;-0.02;0.93;-0.17;17.22;13.09;8.54
5148;-1.82;-9.25;-0.15;-0.02;0.93;-0.17;11.34;14.70;12.74
5157;-1.51;-9.08;0.01;-0.02;0.93;-0.17;8.68;12.25;13.72
5166;-1.36;-8.98;-0.18;-0.02;0.93;-0.17;8.89;6.37;10.78
5174;-0.98;-8.89;-0.36;-0.02;0.93;-0.17;12.53;0.63;6.02
5183;-0.80;-8.96;-0.28;-0.02;0.93;-0.17;16.52;-6.37;-0.63
5192;-0.65;-9.25;-0.14;-0.02;0.93;-0.16;20.37;-11.27;-6.23
5201;-0.67;-9.42;-0.14;-0.02;0.93;-0.16;24.29;-15.33;-9.94
5209;-0.54;-9.43;-0.27;-0.02;0.93;-0.16;25.90;-13.93;-14.56
5218;-0.62;-9.69;-0.02;-0.02;0.95;-0.15;23.10;-10.36;-12.88
5227;-0.90;-9.93;-0.06;-0.02;0.95;-0.15;16.31;-7.07;-7.00
5236;-0.53;-10.14;-0.12;-0.02;0.95;-0.15;9.31;-2.17;-2.10
5244;-0.76;-10.04;-0.31;-0.02;0.94;-0.15;2.24;0.84;2.73
5253;-0.74;-10.24;-0.12;-0.02;0.94;-0.15;-0.77;-0.84;4.13
5262;-0.73;-10.42;-0.16;-0.02;0.95;-0.14;0.14;-4.41;4.69
5271;-0.52;-10.36;-0.26;-0.04;0.95;-0.14;3.08;-9.10;4.97
5279;-0.49;-10.25;-0.17;-0.04;0.95;-0.14;3.08;-14.35;4.41
5288;-0.70;-10.00;-0.01;-0.02;0.94;-0.16;-1.96;-18.06;2.94
5297;-0.67;-9.83;0.36;-0.02;0.94;-0.16;-6.44;-18.62;3.43
5306;-0.68;-9.68;0.65;-0.02;0.94;-0.16;-9.38;-15.82;5.46
5314;-0.75;-9.58;0.97;-0.02;0.95;-0.14;-11.20;-11.90;7.63
5323;-0.91;-9.50;1.23;-0.02;0.95;-0.14;-12.53;-5.46;9.17
5332;-0.86;-9.34;1.50;-0.02;0.95;-0.14;-10.78;0.98;8.26
5341;-1.00;-9.26;1.36;-0.02;0.94;-0.15;-6.86;7.49;2.87
5350;-1.10;-9.53;1.05;-0.02;0.94;-0.15;-1.82;11.83;-3.85
5358;-1.35;-9.69;0.94;-0.02;0.94;-0.15;4.62;15.54;-8.89
5367;-1.63;-9.90;0.65;-0.02;0.95;-0.15;12.04;14.35;-9.03
5376;-1.90;-10.09;0.08;-0.02;0.95;-0.15;10.08;10.92;-12.32
5384;-1.84;-10.00;0.01;-0.02;0.95;-0.15;11.83;10.92;-14.91
5393;-1.79;-10.20;1.74;-0.03;0.94;-0.16;9.45;9.66;-12.74
5402;-1.83;-10.16;-0.24;-0.03;0.94;-0.16;2.38;7.42;-9.73
5411;-1.67;-10.11;-0.03;-0.03;0.94;-0.16;-0.70;5.53;-8.96
5420;-1.64;-10.10;0.42;-0.02;0.94;-0.15;-4.13;6.02;-6.37
5428;-1.59;-10.16;0.70;-0.02;0.94;-0.15;-5.25;8.19;-4.48
5437;-1.32;-10.25;0.88;-0.02;0.94;-0.15;-4.41;13.72;-2.10
5446;-1.18;-10.03;0.73;-0.02;0.94;-0.15;-4.06;19.60;-0.56
5455;-1.09;-10.01;0.73;-0.02;0.94;-0.15;-4.48;23.66;-0.28
5463;-0.90;-10.16;0.58;-0.02;0.94;-0.15;-3.15;25.55;-1.05
5472;-0.76;-10.00;0.44;-0.02;0.94;-0.14;0.49;26.11;-2.03
5481;-0.62;-9.98;0.04;-0.02;0.94;-0.14;3.43;25.27;-3.78
5490;-0.38;-10.06;-0.10;-0.02;0.94;-0.14;3.71;22.26;-6.23
5498;-0.22;-9.97;-0.47;-0.03;0.94;-0.16;1.75;16.24;-10.64
5507;-0.20;-9.88;-0.75;-0.03;0.94;-0.16;-0.35;8.82;-17.08
5516;-0.35;-11.02;-0.72;-0.03;0.94;-0.16;-7.42;2.45;-22.89
5525;-0.55;-10.42;0.16;-0.04;0.93;-0.16;-14.14;4.06;-22.75
5534;-0.41;-10.73;0.50;-0.04;0.93;-0.16;-21.07;10.85;-13.37
5542;-0.07;-10.87;0.74;-0.04;0.93;-0.16;-27.86;25.55;-1.19
5551;0.05;-11.09;0.96;-0.03;0.94;-0.15;-34.93;40.74;10.57
5560;0.03;-10.95;0.89;-0.03;0.94;-0.15;-40.11;51.45;18.06
5569;0.26;-10.92;0.67;-0.03;0.94;-0.15;-43.68;58.94;24.71
5577;0.44;-10.81;0.78;-0.03;0.94;-0.15;-44.80;62.58;26.88
5586;0.34;-10.66;0.49;-0.03;0.94;-0.15;-45.29;62.58;25.48
5595;0.57;-10.42;0.23;-0.03;0.94;-0.15;-43.26;56.49;20.02
5604;0.66;-10.39;-1.82;-0.02;0.94;-0.18;-37.38;46.83;11.76
5613;0.60;-9.99;-0.24;-0.02;0.94;-0.18;-31.29;36.68;-0.07
5621;0.50;-9.91;-0.50;-0.03;0.94;-0.17;-27.30;23.80;-13.58
5630;0.20;-9.72;-0.37;-0.03;0.94;-0.17;-23.87;9.17;-28.14
5639;-0.10;-9.88;0.01;-0.03;0.94;-0.17;-21.98;-0.77;-38.71
5648;-0.25;-10.43;0.27;-0.03;0.93;-0.18;-18.97;-5.67;-45.22
5657;-1.02;-10.47;0.35;-0.03;0.93;-0.18;-21.28;0.28;-46.06
5665;-1.39;-10.75;0.77;-0.03;0.93;-0.18;-18.34;15.19;-36.47
5674;-1.54;-10.84;0.69;-0.03;0.92;-0.18;-24.36;27.65;-27.37
5683;-2.73;-9.99;0.01;-0.03;0.92;-0.18;-31.99;36.75;-26.88
5692;-1.22;-11.20;-0.14;-0.03;0.92;-0.18;-69.86;32.48;-13.02
5700;-0.57;-11.21;0.02;-0.04;0.93;-0.19;-80.08;20.30;-3.36
5709;0.50;-11.32;0.06;-0.04;0.93;-0.19;-114.03;-2.73;35.35
5718;1.79;-10.98;-0.37;-0.04;0.93;-0.19;-155.89;-37.45;41.79
5727;3.94;-8.95;-0.85;-0.03;0.91;-0.21;-221.76;-73.15;36.12
5736;6.50;-4.48;-0.48;-0.03;0.91;-0.21;-314.93;-97.51;38.71
5744;6.46;3.96;2.56;-0.03;0.91;-0.21;-468.02;-105.42;60.20
5753;8.68;13.95;7.51;-0.02;0.86;-0.29;-732.06;-6.72;148.82
5762;13.91;28.30;14.03;-0.02;0.86;-0.29;-1019.34;28.84;129.78
5771;13.37;49.83;19.65;-0.02;0.86;-0.29;-1302.91;20.72;-165.27
5779;5.44;42.20;22.44;-0.02;0.68;-0.44;-1196.09;225.19;-544.88
5788;-4.91;36.82;28.01;-0.02;0.68;-0.44;-1252.51;391.23;-847.91
5797;-20.09;28.59;25.00;-0.02;0.68;-0.44;-1340.78;583.17;-901.32
5806;-48.63;21.56;40.07;0.06;0.44;-0.46;-1439.48;765.87;-838.32
5814;-67.41;14.03;41.86;0.06;0.44;-0.46;-1776.46;447.72;-444.71
5823;-53.69;-3.37;60.04;0.06;0.44;-0.46;-1740.97;-29.26;-79.45
5832;-35.68;-32.43;84.12;0.14;0.17;-0.30;-1017.66;-263.69;-28.98
5841;-22.46;-59.88;83.34;0.14;0.17;-0.30;-105.63;-280.98;-31.64
5850;-10.09;-40.58;58.23;0.14;0.17;-0.30;583.94;-9.52;134.82
5859;-20.57;4.98;28.32;0.11;0.15;-0.31;1026.13;122.08;335.93
5867;-21.14;42.93;-2.35;0.11;0.15;-0.31;996.87;37.10;486.08
5876;-2.60;47.03;-13.58;0.11;0.15;-0.31;639.94;-81.48;310.45
5885;9.41;46.88;-18.10;0.10;0.23;-0.40;184.45;0.56;129.99
5894;11.93;35.53;-14.26;0.10;0.23;-0.40;-156.24;93.10;85.96
5902;6.35;24.04;-5.63;0.10;0.23;-0.40;-299.46;73.92;21.49
5911;-3.27;11.70;2.28;0.09;0.23;-0.40;-250.25;14.56;-31.43
5920;-4.16;5.03;8.19;0.09;0.23;-0.40;-144.76;-59.64;-46.83
5929;-4.63;1.54;12.38;0.09;0.23;-0.40;-27.23;-64.61;-23.10
5938;-4.16;-0.74;15.19;0.08;0.21;-0.39;31.15;-32.48;9.87
5946;-2.78;-0.84;14.72;0.08;0.21;-0.39;58.87;4.76;29.75
5955;-2.03;1.55;11.32;0.08;0.22;-0.39;97.02;39.97;40.39
5964;-1.85;4.66;6.88;0.08;0.22;-0.39;140.07;58.03;43.26
5973;-1.29;8.24;3.35;0.08;0.22;-0.39;141.68;55.72;37.52
5981;-0.70;9.66;0.93;0.09;0.23;-0.40;103.60;42.21;24.92
5990;-0.26;9.20;0.73;0.09;0.23;-0.40;44.10;25.90;10.92
5999;-0.13;7.45;2.61;0.09;0.23;-0.40;-17.99;6.30;-1.82
6008;0.06;4.97;6.36;0.09;0.24;-0.39;-37.80;-5.67;-4.27
6016;0.49;2.73;8.63;0.09;0.24;-0.39;-16.38;-4.27;-2.10
6025;0.19;1.41;9.57;0.09;0.24;-0.39;9.38;0.21;0.21
6034;-0.12;0.46;9.68;0.09;0.23;-0.40;21.21;3.71;3.64
6043;0.05;0.46;9.24;0.09;0.23;-0.40;18.13;5.95;8.12
6051;0.11;0.76;8.96;0.09;0.23;-0.40;2.80;10.50;5.74
6060;0.09;1.46;9.24;0.10;0.23;-0.40;-15.33;12.95;8.89
6069;0.11;2.02;9.66;0.10;0.23;-0.40;-23.59;11.62;14.42
6078;0.23;2.84;10.15;0.10;0.23;-0.40;-13.79;8.40;17.15
6087;0.16;3.90;10.32;0.10;0.23;-0.39;5.18;3.15;14.98
6095;-0.29;4.30;10.14;0.10;0.23;-0.39;24.36;-1.89;11.48
6104;-0.52;4.20;10.09;0.10;0.23;-0.39;33.04;-5.39;8.26
6113;-0.98;4.04;10.06;0.10;0.23;-0.39;30.38;-6.51;7.28
6122;-0.78;3.43;9.90;0.10;0.23;-0.39;21.42;-4.55;5.25
6130;-1.18;3.22;9.92;0.10;0.23;-0.39;5.11;2.38;-5.18
6139;-1.92;2.64;10.04;0.10;0.24;-0.40;-14.91;9.52;-5.60
6148;-2.11;2.27;10.43;0.10;0.24;-0.40;-28.14;15.19;-3.78
6157;-2.06;2.20;10.62;0.10;0.24;-0.40;-24.78;18.13;-1.82
6165;-2.13;1.98;10.65;0.10;0.24;-0.40;-7.49;17.64;3.01
6174;-2.10;1.92;10.37;0.10;0.24;-0.40;17.15;12.81;8.82
6183;-1.84;2.45;9.61;0.10;0.24;-0.40;36.05;9.31;10.92
6192;-2.03;2.74;9.19;0.10;0.24;-0.41;42.42;7.42;11.69
6200;-1.97;2.96;8.91;0.10;0.24;-0.41;37.87;7.07;12.25
6209;-1.67;3.23;8.85;0.10;0.24;-0.41;27.16;10.64;11.41
6218;-1.47;3.50;8.60;0.11;0.25;-0.41;14.00;15.96;8.61
6227;-1.55;3.27;8.25;0.11;0.25;-0.41;3.99;19.18;5.81
6235;-1.56;3.03;7.95;0.11;0.25;-0.41;-1.19;17.85;4.69
6244;-1.34;2.95;8.01;0.11;0.25;-0.40;1.61;11.97;4.13
6253;-1.08;3.07;7.95;0.11;0.25;-0.40;7.91;5.88;4.34
6262;-1.21;3.19;8.05;0.11;0.25;-0.40;9.52;0.28;4.27
6270;-0.78;3.24;8.56;0.12;0.25;-0.40;7.35;-2.94;4.62
6279;-0.80;3.14;9.03;0.12;0.25;-0.40;3.92;-2.59;3.92
6288;-0.88;3.01;9.30;0.12;0.25;-0.40;0.63;-0.14;4.06
6297;-0.96;2.79;9.46;0.11;0.25;-0.40;0.00;2.24;4.97
6305;-0.94;2.67;9.15;0.11;0.25;-0.40;0.07;3.43;5.11
6314;-0.90;2.88;9.02;0.11;0.25;-0.40;0.56;4.62;6.44
6323;-0.79;2.87;9.00;0.10;0.25;-0.40;0.77;5.04;6.86
6332;-0.78;3.24;8.79;0.10;0.25;-0.40;1.75;4.90;6.72
6340;-0.57;3.46;8.66;0.11;0.25;-0.39;3.01;3.78;5.88
6349;-0.57;3.52;8.73;0.11;0.25;-0.39;4.27;2.52;4.76
6358;-0.65;3.41;8.81;0.11;0.25;-0.39;5.32;1.40;3.64
6367;-0.51;3.20;8.80;0.10;0.26;-0.40;6.30;0.14;2.87
6375;-0.62;3.08;8.66;0.10;0.26;-0.40;5.81;0.07;0.91
6384;-0.71;3.09;8.61;0.10;0.26;-0.40;2.66;0.42;0.35
6393;-0.91;2.93;8.82;0.11;0.26;-0.41;-3.36;1.26;0.21
6402;-1.02;2.79;8.89;0.11;0.26;-0.41;-6.51;1.26;1.19
6410;-1.06;2.81;9.16;0.11;0.26;-0.41;-4.06;0.42;2.66
6419;-1.03;2.99;9.14;0.11;0.25;-0.41;2.17;-1.12;3.85
6428;-1.08;3.04;9.12;0.11;0.25;-0.41;9.10;-1.89;3.92
6437;-1.08;3.14;7.39;0.11;0.25;-0.41;14.84;-2.03;4.13
6446;-1.03;3.24;9.12;0.09;0.26;-0.40;19.04;-2.45;3.92
6454;-1.11;3.19;9.06;0.09;0.26;-0.40;20.02;-1.96;1.12
6463;-1.26;3.09;8.96;0.09;0.26;-0.40;13.93;1.33;1.26
6472;-1.41;2.99;9.07;0.09;0.26;-0.40;1.61;4.55;2.52
6481;-1.45;2.79;9.36;0.09;0.26;-0.40;-7.70;7.49;3.71
6489;-1.37;2.79;9.45;0.09;0.26;-0.40;-8.26;9.10;5.25
6498;-1.35;2.73;9.43;0.10;0.26;-0.42;-1.82;7.98;6.30
6507;-1.14;2.83;9.39;0.10;0.26;-0.42;8.61;5.39;7.21
6516;-1.04;3.14;9.53;0.10;0.26;-0.42;18.83;2.80;8.12
6524;-0.90;3.17;9.40;0.10;0.26;-0.40;26.81;1.47;6.79
6533;-0.83;3.19;9.20;0.10;0.26;-0.40;30.03;1.54;6.09
6542;-0.87;2.89;9.22;0.10;0.26;-0.40;28.63;2.80;5.11
6551;-1.10;2.48;9.40;0.09;0.27;-0.41;21.70;6.37;4.27
6559;-1.54;2.12;9.62;0.09;0.27;-0.41;10.43;10.64;6.09
6568;-1.57;1.80;10.12;0.09;0.27;-0.41;1.05;16.24;9.52
6577;-1.62;1.62;10.46;0.10;0.27;-0.41;-4.34;20.23;13.37
6586;-1.64;1.41;10.89;0.10;0.27;-0.41;-1.68;23.03;17.43
6594;-1.53;1.78;10.95;0.10;0.27;-0.41;9.31;24.08;22.54
6603;-1.46;2.18;11.13;0.09;0.27;-0.42;28.49;21.91;25.20
6612;0.06;2.30;10.49;0.09;0.27;-0.42;51.10;16.94;25.76
6621;-1.30;2.81;10.60;0.09;0.27;-0.42;74.41;11.41;25.34
6629;-1.15;2.46;9.96;0.09;0.28;-0.40;90.93;6.16;22.26
6638;-1.34;2.30;9.30;0.09;0.28;-0.40;100.59;6.79;18.48
6647;-1.83;2.25;9.27;0.09;0.28;-0.40;101.43;7.00;19.81
6656;-2.05;2.02;9.02;0.10;0.30;-0.40;93.03;8.68;21.28
6664;-2.46;1.83;9.04;0.10;0.30;-0.40;79.59;11.34;23.31
6673;-2.82;1.59;9.17;0.10;0.30;-0.43;66.71;11.69;25.62
6682;-2.93;1.42;9.58;0.10;0.31;-0.43;59.43;11.55;28.35
6691;-2.77;1.19;9.91;0.10;0.31;-0.43;61.46;9.59;31.29
6699;-3.48;1.36;10.67;0.10;0.33;-0.43;70.70;-5.46;23.87
6708;-2.68;1.09;10.42;0.10;0.33;-0.43;95.62;-11.62;33.95
6717;-2.85;0.95;10.63;0.10;0.33;-0.43;122.08;-14.21;34.23
6726;-3.36;0.80;10.49;0.09;0.34;-0.43;148.96;-19.04;33.88
6734;-3.86;0.95;10.00;0.09;0.34;-0.43;164.78;-23.17;40.18
6743;-4.01;0.93;9.80;0.09;0.34;-0.43;168.35;-24.08;47.60
6752;-3.84;1.02;9.30;0.08;0.39;-0.44;162.33;-22.47;54.04
6761;-3.65;1.05;8.94;0.08;0.39;-0.44;151.27;-18.34;58.94
6769;-3.51;0.75;8.67;0.08;0.39;-0.44;142.17;-17.01;54.18
6778;-3.47;-0.03;8.69;0.07;0.40;-0.45;132.65;-10.64;63.42
6787;-3.37;-0.51;8.82;0.07;0.40;-0.45;129.36;-15.68;65.10
6796;-3.48;-0.98;9.01;0.07;0.40;-0.45;135.59;-23.31;67.76
6804;-3.42;-1.11;9.38;0.07;0.43;-0.45;148.33;-28.07;72.73
6813;-3.22;-0.93;9.53;0.07;0.43;-0.45;164.71;-35.28;75.67
6822;-3.00;-0.66;9.53;0.07;0.43;-0.45;178.43;-44.66;78.19
6831;-2.66;-0.86;9.30;0.06;0.47;-0.46;188.58;-48.30;79.94
6840;-2.27;-0.84;8.84;0.06;0.47;-0.46;188.58;-50.05;85.68
6848;-1.96;-0.77;8.89;0.06;0.47;-0.46;186.27;-45.15;81.13
6857;-1.82;-0.99;8.25;0.06;0.50;-0.45;176.12;-41.79;77.70
6866;-1.71;-1.17;7.96;0.06;0.50;-0.45;160.37;-36.26;75.25
6875;-1.51;-2.05;7.90;0.06;0.50;-0.45;147.49;-31.22;74.90
6883;-1.65;-2.80;8.17;0.05;0.54;-0.45;142.66;-30.80;75.46
6892;-1.74;-2.97;8.20;0.05;0.54;-0.45;144.20;-53.20;75.95
6901;-1.67;-3.08;8.33;0.05;0.54;-0.45;147.21;-41.37;74.41
6910;-1.64;-3.58;8.46;0.04;0.56;-0.46;148.47;-48.30;73.78
6918;-1.79;-4.39;8.69;0.04;0.56;-0.46;154.70;-56.84;74.97
6927;-1.30;-4.62;8.70;0.04;0.56;-0.46;167.65;-64.05;72.80
6936;-0.98;-4.47;8.59;0.03;0.59;-0.47;176.61;-70.91;67.27
6945;-0.84;-4.31;8.16;0.03;0.59;-0.47;179.69;-72.03;62.09
6953;-0.64;-4.43;8.00;0.03;0.59;-0.47;171.71;-66.85;53.62
6962;-0.24;-4.63;7.35;0.03;0.62;-0.44;152.11;-57.61;47.18
6971;0.09;-4.63;7.23;0.03;0.62;-0.44;129.43;-44.17;45.29
6980;-0.09;-5.11;7.33;0.03;0.62;-0.44;107.45;-32.34;43.33
6988;-0.29;-5.83;7.52;0.04;0.65;-0.45;97.44;-25.41;39.83
6997;-0.42;-6.47;7.68;0.04;0.65;-0.45;101.92;-24.92;35.84
7006;-0.47;-6.71;8.00;0.04;0.65;-0.45;119.91;-28.98;30.87
7015;-0.39;-6.96;7.98;0.03;0.67;-0.43;149.03;-34.72;24.64
7023;-0.34;-6.99;7.42;0.03;0.67;-0.43;177.24;-40.53;15.82
7032;-0.24;-6.65;6.90;0.03;0.67;-0.43;200.69;-43.19;3.15
7041;-0.47;-6.47;6.12;0.02;0.71;-0.42;210.84;-40.25;-5.46
7050;-0.57;-6.50;5.41;0.02;0.71;-0.42;201.81;-32.13;-9.31
7058;-0.85;-6.75;4.77;0.02;0.74;-0.40;180.18;-23.66;-7.14
7067;-1.01;-7.13;4.52;0.02;0.74;-0.40;156.45;-20.37;-2.73
7076;-1.39;-7.70;4.57;0.02;0.74;-0.40;142.66;-22.19;0.63
7085;-1.61;-8.30;4.65;-0.01;0.77;-0.39;144.48;-27.02;2.52
7093;-1.51;-8.71;4.66;-0.01;0.77;-0.39;157.29;-32.90;3.92
7102;-1.52;-8.48;4.58;-0.01;0.77;-0.39;172.69;-40.67;2.73
7111;-1.48;-8.46;4.50;-0.01;0.80;-0.36;184.59;-44.73;-1.33
7120;-1.35;-8.31;4.36;-0.01;0.80;-0.36;190.05;-39.69;-4.06
7129;-1.23;-7.84;3.85;-0.01;0.80;-0.36;180.95;-31.50;-4.55
7137;-1.18;-7.58;3.74;-0.01;0.82;-0.32;158.55;-20.65;-7.70
7146;-1.38;-7.88;3.62;-0.01;0.82;-0.32;137.83;-9.66;-8.61
7155;-1.53;-8.32;3.67;-0.01;0.82;-0.32;125.16;-8.19;-8.68
7164;-1.75;-8.89;3.88;-0.02;0.84;-0.31;116.62;-13.23;-10.15
7172;-1.81;-9.04;3.65;-0.02;0.84;-0.31;115.71;-16.10;-12.18
7181;-1.64;-9.15;3.57;-0.02;0.84;-0.31;119.91;-18.20;-15.96
7190;-1.63;-9.43;3.40;-0.02;0.87;-0.29;123.34;-17.99;-17.78
7199;-1.51;-9.38;3.22;-0.02;0.87;-0.29;122.22;-15.47;-17.43
7208;-1.65;-9.30;3.35;-0.02;0.87;-0.29;115.43;-14.14;-17.50
7216;-1.50;-9.05;3.19;-0.04;0.88;-0.27;107.38;-17.15;-22.05
7225;-1.90;-9.67;3.84;-0.04;0.88;-0.27;101.22;-14.07;-26.60
7234;-1.69;-10.01;3.81;-0.04;0.88;-0.27;99.47;-7.00;-25.55
7243;-1.71;-10.05;3.88;-0.03;0.89;-0.27;99.75;-2.87;-20.37
7251;-1.59;-10.21;3.50;-0.03;0.89;-0.27;100.10;0.49;-20.72
7260;-1.62;-10.26;3.12;-0.03;0.89;-0.27;99.26;5.67;-21.35
7269;-1.97;-10.34;2.79;-0.04;0.91;-0.23;97.51;8.82;-21.70
7278;-2.09;-10.37;2.43;-0.04;0.91;-0.23;95.90;10.43;-20.44
7287;-2.05;-10.37;1.97;-0.04;0.91;-0.23;94.08;9.52;-19.39
7295;-2.08;-10.27;1.68;-0.05;0.92;-0.23;90.72;8.96;-19.04
7304;-0.12;-10.12;1.52;-0.05;0.92;-0.23;84.07;5.88;-18.97
7313;-1.79;-10.34;1.56;-0.05;0.92;-0.23;77.07;2.66;-19.25
7322;-1.72;-10.36;1.69;-0.05;0.92;-0.21;72.73;1.96;-17.50
7330;-1.58;-10.22;1.55;-0.05;0.92;-0.21;71.54;4.62;-14.77
7339;-1.69;-10.03;1.34;-0.05;0.92;-0.21;69.37;8.75;-11.48
7348;-1.45;-9.71;1.23;-0.05;0.93;-0.20;66.22;12.74;-7.70
7357;-1.42;-9.27;0.52;-0.05;0.93;-0.20;63.84;16.03;-5.46
7365;-1.44;-9.03;0.46;-0.05;0.93;-0.20;57.68;18.90;-4.97
7374;-1.46;-9.00;0.20;-0.05;0.94;-0.19;52.92;20.23;-4.06
7383;-1.39;-8.87;-0.25;-0.05;0.94;-0.19;50.26;20.30;-3.99
7391;-1.37;-8.59;-0.73;-0.05;0.94;-0.19;48.30;20.65;-5.18
7400;-1.37;-8.63;-1.10;-0.05;0.94;-0.16;42.98;20.02;-6.37
7409;-1.64;-8.54;-1.32;-0.05;0.94;-0.16;35.00;18.62;-7.49
7418;-1.62;-8.83;-1.38;-0.05;0.94;-0.16;29.89;16.80;-8.96
7427;-1.67;-9.00;-1.16;-0.05;0.94;-0.16;29.19;12.39;-12.60
7435;-1.93;-9.24;-0.73;-0.05;0.94;-0.16;36.96;10.71;-17.29
7444;-2.20;-9.55;-0.24;-0.05;0.94;-0.16;48.58;10.64;-20.72
7453;-2.05;-9.44;-0.59;-0.05;0.94;-0.16;59.43;13.09;-24.36
7462;-2.37;-9.46;-1.00;-0.05;0.94;-0.16;68.67;19.95;-28.70
7470;-2.50;-9.54;-1.43;-0.06;0.95;-0.14;70.00;24.29;-34.44
7479;-2.59;-9.96;-1.88;-0.06;0.95;-0.14;66.01;24.15;-39.62
7488;-2.78;-10.50;-2.08;-0.06;0.95;-0.14;58.87;21.28;-41.51
7497;-3.00;-11.11;-2.00;-0.06;0.96;-0.13;54.46;15.82;-37.87
7506;-3.24;-11.70;-1.90;-0.06;0.96;-0.13;48.37;10.01;-29.12
7514;-3.37;-11.94;-1.92;-0.06;0.96;-0.13;42.49;4.76;-15.26
7523;-3.14;-11.51;-1.84;-0.07;0.96;-0.11;35.14;-0.14;0.56
7532;-2.84;-11.29;-1.63;-0.07;0.96;-0.11;23.59;-1.68;14.28
7541;-2.56;-11.17;-1.59;-0.07;0.96;-0.11;8.54;-0.77;24.22
7550;-2.28;-11.12;-1.54;-0.07;0.95;-0.11;-3.01;-1.82;28.49
7558;-2.15;-11.29;-1.23;-0.07;0.95;-0.11;-9.59;-5.39;29.12
7567;-1.95;-11.26;-0.88;-0.07;0.95;-0.11;-11.41;-12.04;28.56
7576;-1.86;-10.90;-0.53;-0.06;0.95;-0.12;-10.15;-17.64;26.04
7585;-1.68;-10.57;-0.22;-0.06;0.95;-0.12;-10.29;-20.30;22.61
7594;-1.54;-10.13;-0.10;-0.06;0.95;-0.12;-10.22;-17.64;21.91
7602;-1.52;-9.64;-0.08;-0.07;0.96;-0.12;-13.02;-13.93;20.93
7611;-1.74;-9.57;0.19;-0.07;0.96;-0.12;-17.57;-11.48;19.39
7620;-1.80;-9.58;0.45;-0.07;0.96;-0.12;-19.11;-9.17;16.24
7629;-1.91;-9.49;0.55;-0.06;0.95;-0.11;-15.05;-7.00;14.28
7637;-1.92;-9.45;0.70;-0.06;0.95;-0.11;-9.59;-4.97;11.20
7646;-2.10;-9.44;0.78;-0.06;0.95;-0.11;-5.46;-3.57;7.14
7655;-2.20;-9.55;0.62;-0.04;0.96;-0.12;-1.61;-1.96;2.66
7664;-2.37;-9.69;0.47;-0.04;0.96;-0.12;1.61;1.40;1.40
7672;-2.51;-9.63;0.45;-0.04;0.96;-0.12;3.57;3.57;1.05
7681;-2.62;-9.64;0.58;-0.05;0.95;-0.11;6.16;4.62;1.12
7690;-2.66;-9.65;0.39;-0.05;0.95;-0.11;9.80;6.37;1.47
7699;-2.78;-9.47;0.14;-0.05;0.95;-0.11;12.74;9.31;1.82
7707;-2.80;-9.48;-0.01;-0.05;0.96;-0.13;13.16;9.73;1.26
7716;-2.61;-9.38;-0.39;-0.05;0.96;-0.13;10.99;10.08;2.59
7725;-2.56;-9.30;-0.78;-0.05;0.96;-0.13;8.05;10.85;4.34
7734;-2.38;-9.33;-0.81;-0.04;0.96;-0.11;3.36;10.78;6.58
7742;-2.33;-9.45;-0.78;-0.04;0.96;-0.11;-3.01;11.27;9.45
7751;-2.11;-9.60;-0.60;-0.04;0.95;-0.12;-7.70;11.48;12.18
7760;-1.78;-9.72;-0.56;-0.05;0.95;-0.12;-9.52;10.78;12.60
7769;-1.57;-9.88;-0.50;-0.05;0.95;-0.12;-9.87;10.29;11.55
7777;-1.28;-9.86;-0.29;-0.04;0.96;-0.10;-10.01;10.22;10.64
7786;-1.03;-9.73;-0.42;-0.04;0.96;-0.10;-12.39;10.92;9.66
7795;-0.80;-9.82;-0.37;-0.04;0.96;-0.10;-14.63;12.25;6.44
7804;-0.57;-9.95;-0.46;-0.05;0.95;-0.12;-16.52;13.79;3.64
7812;-0.32;-10.22;-0.19;-0.05;0.95;-0.12;-18.41;14.63;1.54
7821;-0.06;-10.36;-0.22;-0.05;0.95;-0.12;-19.53;15.82;-1.61
7830;-0.06;-10.39;-0.17;-0.05;0.95;-0.11;-18.34;15.68;-3.50
7839;-0.14;-10.52;0.12;-0.05;0.95;-0.11;-15.05;15.89;-3.57
7847;-0.13;-10.79;0.11;-0.05;0.95;-0.11;-11.48;17.99;-1.96
7856;-0.17;-10.79;0.08;-0.04;0.95;-0.12;-10.43;22.40;0.21
7865;-0.27;-10.77;0.01;-0.04;0.95;-0.12;-11.76;27.79;3.36
7874;-0.36;-10.62;0.03;-0.04;0.95;-0.12;-14.49;33.95;7.21
7883;-0.57;-10.54;-0.03;-0.05;0.95;-0.13;-18.34;39.27;10.57
7891;-0.64;-10.37;-0.14;-0.05;0.95;-0.13;-19.95;38.85;11.41
7900;-0.60;-10.29;-0.46;-0.05;0.95;-0.13;-18.69;37.38;10.01
7909;-0.61;-10.04;-0.65;-0.04;0.95;-0.13;-16.94;34.02;7.00
7918;-0.62;-9.91;-0.77;-0.04;0.95;-0.13;-16.94;27.72;3.43
7926;-0.63;-10.13;-0.73;-0.04;0.95;-0.13;-19.32;24.36;-0.21
7935;-0.62;-10.27;-0.61;-0.02;0.94;-0.12;-21.77;23.80;0.77
7944;-0.76;-10.59;-0.03;-0.02;0.94;-0.12;-22.96;26.88;4.06
7953;-0.70;-10.62;0.11;-0.02;0.94;-0.12;-20.72;32.48;8.89
7961;-0.85;-10.46;0.13;-0.03;0.95;-0.14;-10.99;38.57;10.08
7970;-1.16;-10.09;0.00;-0.03;0.95;-0.14;-2.94;42.35;7.77
7979;-1.49;-9.78;-0.16;-0.03;0.95;-0.14;1.82;43.19;3.36
7988;-1.53;-9.67;-0.76;-0.01;0.94;-0.13;4.20;42.21;-0.91
7996;-1.80;-9.50;-1.28;-0.01;0.94;-0.13;1.47;39.62;-2.87
8005;-1.95;-9.43;-1.72;-0.01;0.94;-0.13;-6.44;32.97;-4.13
8014;-1.93;-9.55;-1.90;-0.02;0.94;-0.14;-14.49;23.87;-4.62
8023;-1.86;-9.48;-1.74;-0.02;0.94;-0.14;-21.63;14.21;-4.41
8031;-1.99;-9.73;-1.04;-0.02;0.94;-0.14;-28.28;7.77;-3.99
8040;-1.83;-10.20;-0.06;-0.03;0.94;-0.15;-36.68;11.20;0.56
8049;-1.86;-10.37;0.57;-0.03;0.94;-0.15;-38.15;21.49;9.66
8058;-1.83;-10.35;0.92;-0.03;0.94;-0.15;-37.17;39.27;21.84
8066;-1.75;-10.04;0.90;-0.03;0.94;-0.15;-37.66;57.75;27.16
8075;-1.92;-9.48;0.78;-0.03;0.94;-0.15;-38.36;68.74;26.25
8084;-1.97;-9.30;0.26;-0.03;0.94;-0.15;-37.03;73.29;20.16
8093;-2.18;-9.28;0.04;-0.02;0.94;-0.15;-34.51;71.26;9.66
8101;-2.43;-9.30;-0.15;-0.02;0.94;-0.15;-27.16;60.62;-1.96
8110;-2.68;-9.39;-0.56;-0.02;0.94;-0.15;-19.88;46.76;-14.00
8119;-2.78;-9.71;-0.92;-0.01;0.93;-0.15;-18.48;29.61;-24.92
8128;-2.84;-9.86;-1.06;-0.01;0.93;-0.15;-19.46;14.70;-32.13
8136;-3.16;-9.79;-1.06;-0.02;0.95;-0.17;-23.24;-2.45;-36.61
8145;-3.40;-9.80;-0.60;-0.02;0.95;-0.17;-29.12;-15.89;-38.78
8154;-3.31;-10.14;-0.67;-0.02;0.95;-0.17;-35.84;-29.47;-35.98
8163;-3.13;-10.41;-0.52;-0.03;0.93;-0.17;-44.52;-41.30;-33.60
8171;-2.98;-10.22;-0.06;-0.03;0.93;-0.17;-54.81;-52.85;-29.19
8180;2.34;-9.57;0.49;-0.03;0.93;-0.17;-66.50;-40.53;-10.71
8189;-2.18;-10.35;0.68;-0.04;0.92;-0.18;-99.75;-80.36;-10.85
8198;-1.78;-8.71;1.67;-0.04;0.92;-0.18;-146.93;-127.33;-21.21
8207;-0.83;-4.10;2.67;-0.04;0.92;-0.18;-240.38;-169.82;-14.14
8216;-0.35;-0.46;4.43;-0.05;0.91;-0.23;-383.88;-168.14;-12.39
8224;3.81;10.83;11.09;-0.05;0.91;-0.23;-625.87;-103.39;35.07
8233;4.97;19.91;15.58;-0.05;0.91;-0.23;-885.36;-76.93;48.30
8242;6.30;32.68;21.40;-0.06;0.81;-0.35;-1114.26;-90.09;-76.72
8251;13.84;30.67;21.14;-0.06;0.81;-0.35;-1044.75;24.01;-302.96
8260;6.54;21.96;19.59;-0.06;0.81;-0.35;-889.70;102.69;-583.73
8268;-3.60;21.74;19.91;-0.09;0.64;-0.46;-756.21;261.17;-799.68
8277;-15.75;17.48;22.02;-0.09;0.64;-0.46;-739.97;616.42;-986.51
8286;-42.74;14.77;39.36;-0.09;0.64;-0.46;-1041.04;654.78;-875.91
8295;-63.50;0.18;40.16;0.02;0.44;-0.48;-1497.79;768.11;-584.78
8303;-62.09;-28.48;57.28;0.02;0.44;-0.48;-1906.10;515.55;-162.12
8312;-33.54;-55.68;77.83;0.02;0.44;-0.48;-1678.67;354.34;157.29
8321;0.67;-61.45;78.60;0.10;0.14;-0.30;-499.94;213.43;58.80
8330;-8.27;-29.53;42.50;0.10;0.14;-0.30;707.77;190.89;33.46
8339;-26.70;18.25;6.86;0.10;0.14;-0.30;1414.77;62.02;183.75
8347;-20.65;53.09;-17.90;0.18;0.15;-0.37;1218.98;-60.90;358.61
8356;3.22;49.04;-24.08;0.18;0.15;-0.37;550.27;-156.38;212.87
8365;11.42;40.21;-17.26;0.18;0.15;-0.37;-136.36;39.41;107.45
8374;8.00;28.67;-10.22;0.16;0.25;-0.42;-622.16;103.11;97.58
8382;1.40;11.33;4.09;0.16;0.25;-0.42;-643.37;45.15;41.86
8391;-4.02;-0.60;13.94;0.16;0.25;-0.42;-371.21;-23.66;-18.27
8400;-4.26;-5.23;19.52;0.12;0.18;-0.37;-64.33;-91.84;-34.86
8409;-1.49;-6.05;20.44;0.12;0.18;-0.37;127.05;-77.77;0.42
8417;-1.42;0.37;17.47;0.12;0.18;-0.37;181.23;-17.22;53.13
8426;-0.81;5.20;12.55;0.10;0.19;-0.37;164.71;20.09;64.05
8435;-0.59;8.04;7.87;0.10;0.19;-0.37;130.20;56.98;41.79
8444;-0.06;9.16;3.09;0.10;0.19;-0.37;94.22;73.85;22.96
8452;-0.69;9.07;-0.10;0.11;0.21;-0.39;63.14;69.79;16.10
8461;-1.23;7.57;-0.66;0.11;0.21;-0.39;27.37;38.57;6.72
8470;-0.98;5.95;1.74;0.11;0.21;-0.40;-3.85;-15.19;2.10
8479;0.32;4.72;5.05;0.12;0.21;-0.40;-31.22;-27.65;-1.05
8487;0.48;4.03;8.89;0.12;0.21;-0.40;-47.60;-34.65;-3.15
8496;0.70;3.24;11.09;0.11;0.22;-0.38;-41.16;-31.50;4.69
8505;1.00;2.69;12.77;0.11;0.22;-0.38;-24.15;-17.71;5.67
8514;1.20;2.81;12.30;0.11;0.22;-0.38;1.47;7.00;9.59
8522;0.56;3.25;10.88;0.10;0.21;-0.38;27.02;21.07;8.89
8531;0.02;3.93;8.94;0.10;0.21;-0.38;41.51;23.80;6.93
8540;-0.45;3.88;7.76;0.10;0.21;-0.38;35.77;19.95;3.57
8549;-0.99;3.95;7.70;0.11;0.23;-0.39;10.29;10.22;6.79
8557;-1.05;3.98;8.79;0.11;0.23;-0.39;-19.67;-0.14;12.32
8566;-0.75;3.95;10.46;0.11;0.23;-0.39;-29.33;-4.76;15.05
8575;-0.84;3.96;11.71;0.11;0.22;-0.39;-23.17;-4.69;11.90
8584;-0.95;3.94;11.97;0.11;0.22;-0.39;-8.05;-1.26;7.42
8592;-1.06;3.73;11.46;0.11;0.22;-0.39;11.76;3.01;0.98
8601;-1.16;3.55;10.74;0.11;0.22;-0.38;23.24;4.41;-2.59
8610;-1.06;3.35;10.29;0.11;0.22;-0.38;28.63;6.58;-4.13
8619;-1.10;3.02;9.71;0.11;0.22;-0.38;25.34;11.76;-5.60
8627;-1.45;2.73;9.22;0.11;0.20;-0.38;13.30;17.29;-4.62
8636;-1.82;2.47;8.88;0.11;0.20;-0.38;-0.49;20.72;-1.68
8645;-1.96;2.60;8.86;0.11;0.20;-0.38;-6.51;20.86;2.24
8654;-1.93;2.73;8.80;0.11;0.23;-0.39;-1.75;18.90;7.35
8662;-1.95;2.66;8.58;0.11;0.23;-0.39;8.82;15.19;11.13
8671;-1.82;2.74;8.44;0.11;0.23;-0.39;20.51;9.10;14.07
8680;-1.57;3.01;8.36;0.11;0.22;-0.39;30.10;3.99;14.21
8689;-1.21;3.23;8.59;0.11;0.22;-0.39;35.21;1.19;13.09
8698;-0.66;3.38;8.51;0.11;0.22;-0.39;34.30;0.91;10.92
8706;-0.66;3.43;8.58;0.12;0.23;-0.39;26.39;4.55;7.98
8715;-0.59;3.50;8.68;0.12;0.23;-0.39;14.00;8.19;6.51
8724;-0.52;3.40;8.70;0.12;0.23;-0.39;1.68;12.60;5.46
8732;-0.47;3.55;8.63;0.11;0.23;-0.40;-3.71;15.47;2.94
8741;-0.66;3.50;8.56;0.11;0.23;-0.40;-3.01;15.26;1.05
8750;-0.68;3.51;8.51;0.11;0.23;-0.40;4.62;12.04;1.05
8759;-0.70;3.30;8.51;0.13;0.23;-0.40;14.35;7.21;0.56
8768;-0.59;3.16;8.43;0.13;0.23;-0.40;18.20;1.40;2.24
8776;-0.67;3.07;8.48;0.13;0.23;-0.40;17.01;-2.45;3.57
8785;-0.80;2.95;8.75;0.12;0.23;-0.40;12.04;-3.92;4.13
8794;-0.66;2.81;8.91;0.12;0.23;-0.40;5.25;-3.43;5.18
8803;-0.58;2.79;9.15;0.12;0.23;-0.40;-2.17;0.56;5.95
8811;-0.60;2.90;9.15;0.11;0.24;-0.39;-10.64;6.09;7.21
8820;-0.60;2.79;9.34;0.11;0.24;-0.39;-11.76;9.03;6.37
8829;-0.71;2.99;9.15;0.11;0.24;-0.39;-4.34;9.03;4.97
8838;-0.64;3.35;9.12;0.12;0.23;-0.38;6.93;6.93;3.50
8846;-0.65;3.52;9.02;0.12;0.23;-0.38;16.52;4.34;2.10
8855;-0.65;3.49;8.71;0.12;0.23;-0.39;19.81;2.24;0.70
8864;-0.84;3.37;8.53;0.11;0.23;-0.39;16.87;0.70;0.98
8872;-1.11;3.17;8.64;0.11;0.23;-0.39;9.94;-0.14;2.03
8881;-0.90;3.22;8.68;0.12;0.24;-0.41;2.24;-0.56;3.64
8890;-0.90;3.17;8.87;0.12;0.24;-0.41;-3.50;1.26;4.69
8899;-0.85;3.16;9.04;0.12;0.24;-0.41;-5.67;1.96;4.83
8907;-0.73;3.37;9.06;0.12;0.23;-0.39;-4.06;0.84;4.27
8916;-0.62;3.52;9.02;0.12;0.23;-0.39;2.38;-0.70;2.73
8925;-0.70;3.53;8.84;0.12;0.23;-0.39;7.00;-1.61;1.05
8934;-0.79;3.56;8.83;0.12;0.24;-0.38;8.68;-1.89;0.49
8942;-0.94;3.45;9.05;0.12;0.24;-0.38;6.23;-1.61;0.35
8951;-0.79;3.10;9.09;0.12;0.24;-0.38;4.48;-0.77;0.56
8960;-0.87;2.89;9.30;0.12;0.24;-0.39;3.36;-0.63;0.35
8969;-1.02;2.77;9.30;0.12;0.24;-0.39;0.70;0.98;0.84
8977;-0.90;2.76;9.29;0.12;0.24;-0.39;-3.85;1.82;3.22
8986;-0.85;2.91;9.33;0.12;0.24;-0.41;-4.48;2.24;4.55
8995;-0.68;3.19;9.25;0.12;0.24;-0.41;0.42;1.47;3.85
9003;-0.54;3.29;9.15;0.12;0.24;-0.41;8.05;-0.70;3.15
9012;-0.50;3.39;9.22;0.12;0.25;-0.39;17.29;-2.59;2.31
9021;-0.37;3.65;9.14;0.12;0.25;-0.39;25.76;-4.90;1.26
9030;-0.34;3.75;8.87;0.12;0.25;-0.39;31.43;-6.23;-1.05
9039;-0.37;3.59;8.71;0.13;0.25;-0.39;31.36;-6.30;-3.64
9047;-0.49;3.52;8.52;0.13;0.25;-0.39;23.03;-4.06;-4.27
9056;-0.67;3.33;8.69;0.13;0.25;-0.39;10.71;0.00;-4.48
9065;-0.81;2.91;9.04;0.12;0.25;-0.41;-1.19;4.13;-3.99
9074;-0.98;2.37;9.55;0.12;0.25;-0.41;-8.40;7.00;-2.31
9082;-0.99;2.07;9.86;0.12;0.25;-0.41;-6.16;8.26;0.00
9091;-1.08;1.94;10.16;0.12;0.25;-0.39;2.87;8.96;1.96
9100;-1.19;1.92;10.22;0.12;0.25;-0.39;14.49;9.31;5.11
9108;-1.06;2.09;10.43;0.12;0.25;-0.39;26.88;10.29;8.68
9117;-1.15;2.34;10.50;0.12;0.25;-0.42;43.40;10.22;11.41
9126;-1.17;2.49;10.77;0.12;0.25;-0.42;59.15;9.17;12.32
9135;-1.21;2.51;10.77;0.12;0.25;-0.42;77.21;6.37;13.72
9144;-1.26;2.30;10.60;0.12;0.27;-0.40;96.95;3.15;12.46
9152;-1.24;2.07;10.24;0.12;0.27;-0.40;115.85;1.54;10.08
9161;-1.43;1.92;10.05;0.12;0.27;-0.40;127.33;-0.63;11.41
9170;-1.62;1.70;9.85;0.11;0.29;-0.42;133.14;-1.05;13.93
9179;-1.80;1.59;9.73;0.11;0.29;-0.42;134.12;-0.49;16.59
9188;-2.21;1.62;9.67;0.11;0.29;-0.42;132.51;-1.12;18.55
9196;-2.03;1.28;9.96;0.11;0.32;-0.42;129.64;0.00;23.03
9205;-1.95;1.08;10.24;0.11;0.32;-0.42;127.61;2.87;26.67
9214;-4.44;-0.66;10.60;0.11;0.32;-0.44;130.69;-12.32;20.72
9223;-2.39;0.70;10.72;0.10;0.36;-0.44;134.68;3.99;32.83
9231;-2.61;0.53;11.03;0.10;0.36;-0.44;147.35;4.69;32.90
9240;-2.50;-0.01;10.95;0.10;0.38;-0.43;164.78;3.43;35.21
9249;-2.56;-0.27;10.53;0.10;0.38;-0.43;185.50;1.96;35.35
9258;-2.59;-0.11;10.24;0.10;0.38;-0.43;207.97;-1.05;35.84
9266;-2.63;-0.01;9.36;0.09;0.41;-0.46;219.73;-4.90;37.45
9275;-2.46;-0.04;8.82;0.09;0.41;-0.46;219.17;-9.73;38.43
9284;-2.18;-0.10;8.41;0.09;0.41;-0.46;208.74;-11.27;39.48
9293;-2.18;-0.03;8.22;0.09;0.46;-0.44;197.68;-12.74;37.52
9301;-2.01;-0.45;8.51;0.09;0.46;-0.44;179.97;-5.60;41.79
9310;-1.81;-1.13;8.61;0.09;0.46;-0.44;166.81;-5.25;45.36
9319;-1.71;-1.44;8.69;0.09;0.49;-0.46;159.46;-1.68;48.09
9328;-1.53;-1.58;8.79;0.09;0.49;-0.46;158.13;1.54;50.96
9336;-1.90;-1.94;8.94;0.09;0.49;-0.46;162.75;3.64;53.13
9345;-1.92;-2.20;8.82;0.09;0.51;-0.44;169.96;4.55;55.09
9354;-1.99;-2.54;8.63;0.09;0.51;-0.44;178.01;0.42;57.19
9363;-1.87;-2.84;8.04;0.09;0.51;-0.44;187.25;-5.25;59.36
9371;-1.54;-3.06;7.37;0.10;0.55;-0.44;193.76;-13.37;54.67
9380;-1.52;-3.15;6.69;0.10;0.55;-0.44;196.00;-20.44;48.86
9389;-1.69;-3.27;6.35;0.10;0.55;-0.44;189.91;-28.42;45.29
9398;-1.77;-3.78;6.37;0.09;0.58;-0.44;174.09;-35.77;45.50
9406;-1.63;-4.54;6.75;0.09;0.58;-0.44;158.55;-41.58;47.18
9415;-1.79;-5.12;7.35;0.09;0.58;-0.44;150.71;-46.27;47.11
9424;-1.84;-5.53;7.53;0.09;0.62;-0.45;153.51;-50.47;45.08
9433;-1.64;-5.91;7.93;0.09;0.62;-0.45;174.16;-59.78;44.31
9442;-1.94;-5.64;7.57;0.09;0.62;-0.45;186.76;-59.29;38.92
9450;-2.02;-5.43;7.20;0.07;0.64;-0.44;191.59;-66.22;31.36
9459;-2.12;-5.51;6.39;0.07;0.64;-0.44;187.39;-71.40;26.88
9468;-1.87;-5.67;5.61;0.07;0.64;-0.44;171.01;-69.30;26.81
9477;-1.67;-5.53;5.30;0.07;0.67;-0.42;148.05;-65.80;28.98
9485;-1.60;-5.94;5.38;0.07;0.67;-0.42;122.50;-62.79;30.45
9494;-1.72;-6.59;5.71;0.07;0.67;-0.42;101.78;-61.95;29.96
9503;-1.72;-6.99;5.95;0.07;0.71;-0.40;88.97;-64.05;28.70
9512;-1.78;-7.36;6.41;0.07;0.71;-0.40;85.54;-64.12;27.51
9521;-1.62;-7.75;6.57;0.07;0.71;-0.40;87.85;-62.72;27.58
9529;-1.56;-7.75;6.75;0.06;0.72;-0.39;94.85;-61.25;26.32
9538;-1.38;-7.82;6.57;0.06;0.72;-0.39;108.22;-64.75;22.68
9547;-1.14;-7.54;6.45;0.06;0.72;-0.39;119.14;-66.01;16.94
9556;-1.21;-7.38;6.50;0.05;0.74;-0.40;123.76;-66.15;12.32
9564;-1.11;-7.39;5.69;0.05;0.74;-0.40;121.52;-59.01;8.12
9573;-0.94;-7.41;5.70;0.05;0.74;-0.38;107.45;-45.50;8.75
9582;-0.99;-7.51;5.25;0.04;0.77;-0.38;91.14;-35.00;11.13
9591;-0.98;-7.34;4.89;0.04;0.77;-0.38;79.45;-30.38;11.97
9599;-1.12;-7.49;5.20;0.04;0.78;-0.37;71.82;-30.66;9.24
9608;-0.90;-7.77;5.64;0.04;0.78;-0.37;71.96;-30.45;6.02
9617;-0.76;-7.82;5.36;0.04;0.78;-0.37;79.87;-32.69;3.43
9626;-0.47;-8.19;5.92;0.03;0.78;-0.36;87.85;-28.63;-3.22
9635;-0.34;-8.00;5.65;0.03;0.78;-0.36;92.33;-19.60;-5.04
9643;-0.33;-7.90;5.51;0.03;0.78;-0.36;93.10;-13.16;-10.01
9652;-0.34;-7.80;5.13;0.02;0.81;-0.35;89.18;-7.84;-16.38
9661;-0.70;-7.78;4.88;0.02;0.81;-0.35;81.90;-4.76;-21.28
9670;-0.81;-8.03;4.82;0.02;0.81;-0.35;72.80;-9.24;-25.62
9678;-0.98;-8.50;5.14;0.03;0.82;-0.34;65.66;-17.22;-27.79
9687;-0.99;-9.17;5.64;0.03;0.82;-0.34;64.33;-21.35;-27.23
9696;-0.75;-9.22;5.69;0.03;0.82;-0.34;67.41;-20.02;-23.59
9705;-0.71;-9.10;5.72;0.02;0.83;-0.34;68.04;-16.38;-23.24
9713;-0.60;-9.22;5.93;0.02;0.83;-0.34;66.22;-10.99;-26.88
9722;-0.67;-9.41;5.91;0.02;0.83;-0.34;66.43;-4.97;-32.34
9731;-0.79;-9.55;5.86;0.00;0.84;-0.31;70.28;0.70;-37.59
9740;-0.88;-9.83;5.58;0.00;0.84;-0.31;72.87;9.03;-39.90
9749;-0.98;-9.99;5.29;0.00;0.84;-0.31;69.93;15.26;-40.88
9757;-1.12;-10.34;4.95;-0.01;0.86;-0.31;64.26;17.29;-40.67
9766;-1.14;-10.48;4.62;-0.01;0.86;-0.31;59.43;16.24;-39.20
9775;-1.35;-10.82;4.54;-0.01;0.86;-0.31;54.67;12.88;-38.43
9783;-1.56;-11.24;4.81;-0.01;0.86;-0.29;50.12;9.73;-35.77
9792;-1.75;-11.33;5.02;-0.01;0.86;-0.29;50.68;7.98;-30.10
9801;-1.65;-11.33;5.10;-0.01;0.86;-0.29;52.15;8.12;-23.17
9810;-1.79;-11.26;5.21;-0.01;0.87;-0.29;53.97;10.36;-18.06
9819;-1.79;-11.09;5.09;-0.01;0.87;-0.29;55.16;14.49;-18.55
9827;-1.80;-11.00;4.83;-0.01;0.87;-0.29;60.55;17.64;-17.85
9836;-1.89;-10.75;4.34;-0.02;0.87;-0.28;63.70;19.25;-20.02
9845;-1.87;-10.63;3.96;-0.02;0.87;-0.28;65.24;22.47;-21.28
9854;-1.97;-10.67;3.46;-0.02;0.87;-0.28;65.94;27.65;-21.42
9862;-1.98;-10.73;2.91;-0.02;0.88;-0.26;60.06;33.04;-16.73
9871;-2.12;-10.66;2.48;-0.02;0.88;-0.26;50.61;39.48;-8.54
9880;-2.43;-10.42;2.54;-0.02;0.88;-0.26;40.04;42.70;-0.28
9889;-2.46;-10.52;2.49;-0.02;0.89;-0.26;28.42;44.80;7.00
9897;-2.73;-10.36;2.54;-0.02;0.89;-0.26;23.10;43.89;14.07
9906;-2.81;-10.18;2.43;-0.02;0.89;-0.26;27.44;39.34;16.94
9915;-2.56;-10.09;2.15;-0.01;0.90;-0.24;35.21;32.76;14.07
9924;-2.38;-10.20;2.12;-0.01;0.90;-0.24;43.40;29.40;9.24
9932;-2.48;-9.76;1.73;-0.01;0.90;-0.26;49.63;28.14;7.63
9941;-2.25;-9.32;1.32;-0.01;0.90;-0.26;47.46;25.62;8.47
9950;-2.06;-9.10;1.14;-0.01;0.90;-0.26;38.78;25.06;8.96
9959;-1.88;-8.87;0.95;-0.01;0.90;-0.24;29.12;24.78;11.13
9967;-1.67;-8.64;0.73;-0.01;0.90;-0.24;20.72;22.96;14.35
9976;-1.59;-8.46;0.58;-0.01;0.90;-0.24;13.23;20.72;15.75
9985;-1.68;-8.72;0.88;0.02;0.90;-0.23;6.72;15.82;9.94
9994;-1.69;-9.10;1.00;0.02;0.90;-0.23;4.97;11.34;3.22
10002;-1.60;-9.74;1.08;0.02;0.90;-0.23;11.62;10.57;-1.33
10011;-1.51;-10.27;1.32;0.02;0.89;-0.22;19.81;9.94;-2.45
10020;-1.34;-10.47;1.16;0.02;0.89;-0.22;23.73;8.33;-0.35
10029;-1.17;-10.52;0.97;0.02;0.89;-0.22;24.01;6.86;3.64
10037;-1.06;-10.65;1.20;0.01;0.91;-0.22;19.88;4.34;8.61
10046;-1.16;-10.49;1.44;0.01;0.91;-0.22;17.36;0.63;14.14
10055;-0.94;-10.34;1.41;0.01;0.91;-0.22;19.11;-1.47;17.64
10064;-0.66;-9.86;1.26;0.01;0.90;-0.21;23.59;-0.21;24.15
10073;-0.55;-9.20;1.26;0.01;0.90;-0.21;25.90;1.54;27.51
10081;-0.48;-8.84;1.01;0.01;0.90;-0.21;23.66;4.55;28.70
10090;-0.44;-8.87;0.81;0.03;0.90;-0.23;19.18;9.66;25.55
10099;-0.54;-9.02;0.72;0.03;0.90;-0.23;13.16;13.58;24.50
10107;-0.50;-8.79;0.39;0.03;0.90;-0.23;8.19;14.77;28.07
10116;-0.63;-9.01;0.24;0.03;0.89;-0.21;5.60;11.69;32.27
10125;-0.55;-9.09;0.35;0.03;0.89;-0.21;3.92;4.41;35.07
10134;-0.51;-8.96;0.34;0.03;0.89;-0.21;4.69;-5.67;34.93
10143;-0.36;-8.99;0.77;0.04;0.90;-0.21;5.53;-14.00;32.41
10151;-0.22;-8.89;1.03;0.04;0.90;-0.21;4.34;-19.60;29.89
10160;-0.19;-8.91;1.44;0.04;0.90;-0.21;1.19;-21.42;27.51
10169;-0.02;-8.84;1.68;0.04;0.90;-0.22;-0.35;-18.27;22.61
10178;0.05;-8.88;1.97;0.04;0.90;-0.22;-0.42;-9.17;18.41
10186;0.00;-8.75;2.37;0.04;0.90;-0.22;-1.12;-1.82;17.64
10195;-0.09;-8.71;2.29;0.05;0.90;-0.21;-2.94;4.48;17.08
10204;-0.17;-8.64;2.20;0.05;0.90;-0.21;-2.10;9.24;17.50
10213;-0.15;-8.64;2.19;0.05;0.90;-0.21;-1.12;11.34;17.15
10221;-0.21;-8.65;2.30;0.05;0.89;-0.22;0.63;10.78;16.73
10230;-0.23;-8.74;2.42;0.05;0.89;-0.22;2.87;6.58;13.79
10239;-0.19;-8.77;2.43;0.05;0.89;-0.22;7.70;1.33;8.89
10248;-0.40;-8.69;2.40;0.05;0.89;-0.21;14.49;-4.20;3.08
10256;-0.52;-8.60;2.22;0.05;0.89;-0.21;19.18;-6.86;-0.98
10265;-0.61;-8.71;2.29;0.05;0.89;-0.21;17.57;-7.84;-2.52
10274;-0.62;-8.91;2.40;0.05;0.89;-0.20;14.35;-5.39;-3.50
10283;-0.83;-8.82;2.38;0.05;0.89;-0.20;8.54;-3.50;-2.59
10291;-1.01;-8.92;2.35;0.05;0.89;-0.20;6.72;5.95;-5.18
10300;-0.86;-8.93;2.15;0.06;0.90;-0.20;9.73;17.15;-8.05
10309;-0.93;-9.09;2.05;0.06;0.90;-0.20;11.76;16.73;-6.44
10318;-1.11;-9.40;1.54;0.06;0.91;-0.20;3.22;12.46;-7.00
10326;-1.14;-9.40;1.32;0.06;0.91;-0.20;1.26;11.34;-11.06
10335;-1.20;-9.50;1.11;0.06;0.91;-0.20;3.08;6.02;-11.90
10344;-1.02;-9.45;0.76;0.05;0.90;-0.19;2.94;2.10;-11.48
10353;-1.10;-9.44;0.63;0.05;0.90;-0.19;4.48;0.91;-12.74
10361;-1.16;-9.40;1.08;0.05;0.90;-0.19;4.69;-2.94;-12.67
10370;-1.08;-9.53;1.07;0.05;0.91;-0.18;2.87;-5.46;-11.27
10379;-0.94;-9.73;1.30;0.05;0.91;-0.18;0.35;-6.37;-8.89
10388;-0.85;-9.89;1.59;0.05;0.91;-0.18;0.77;-4.62;-5.32
10396;-0.60;-10.01;2.05;0.05;0.90;-0.19;1.12;-0.21;-2.52
10405;-0.32;-10.03;1.90;0.05;0.90;-0.19;2.24;6.02;-0.98
10414;-0.14;-10.06;1.93;0.05;0.90;-0.19;1.82;10.43;-2.80
10423;0.02;-10.14;1.82;0.05;0.91;-0.20;1.47;12.74;-4.90
10432;-0.14;-10.23;1.58;0.05;0.91;-0.20;4.06;13.23;-6.51
10440;-0.11;-10.37;1.59;0.05;0.91;-0.20;6.93;12.53;-8.19
10449;-0.09;-10.36;1.36;0.05;0.91;-0.20;8.26;9.80;-9.80
10458;-0.09;-10.20;1.04;0.05;0.91;-0.20;8.33;7.14;-10.22
10467;0.05;-10.34;0.93;0.05;0.91;-0.20;6.16;5.18;-9.73
10475;0.06;-10.28;0.89;0.04;0.90;-0.20;2.03;2.73;-8.54
10484;0.23;-10.19;0.90;0.04;0.90;-0.20;-1.61;-0.56;-8.26
10493;0.11;-10.05;1.13;0.04;0.90;-0.20;-3.64;-3.22;-8.33
10502;0.12;-10.42;1.74;0.05;0.91;-0.19;-1.12;-3.78;-8.12
10511;0.24;-10.47;1.65;0.05;0.91;-0.19;7.84;-1.61;-9.17
10519;0.24;-10.22;1.45;0.05;0.91;-0.19;16.87;3.15;-10.36
10528;0.19;-10.16;1.18;0.05;0.91;-0.20;18.90;8.54;-13.16
10537;0.04;-10.12;0.99;0.05;0.91;-0.20;16.31;12.39;-16.87
10546;-0.19;-10.09;0.78;0.05;0.91;-0.20;13.23;14.00;-19.46
10554;-0.47;-10.16;0.62;0.04;0.91;-0.18;8.82;15.12;-21.42
10563;-0.50;-10.34;0.29;0.04;0.91;-0.18;3.36;11.76;-23.52
10572;-0.49;-10.42;0.26;0.04;0.91;-0.18;-0.28;4.90;-24.15
10580;-0.51;-10.47;0.14;0.04;0.91;-0.19;-3.15;-3.15;-25.76
10589;-0.47;-10.65;0.29;0.04;0.91;-0.19;-3.29;-9.03;-27.51
10598;-0.66;-10.92;0.93;0.04;0.91;-0.19;-3.36;-11.83;-27.93
10607;-0.85;-11.36;1.54;0.03;0.92;-0.18;-1.82;-6.16;-22.33
10616;-0.74;-11.34;1.53;0.03;0.92;-0.18;3.50;6.30;-9.45
10624;-0.75;-10.98;1.35;0.03;0.92;-0.18;0.42;22.61;2.66
10633;-0.56;-10.92;1.00;0.03;0.92;-0.19;-11.13;34.37;12.60
10642;-0.50;-11.00;0.74;0.03;0.92;-0.19;-23.38;42.14;17.99
10651;-0.44;-10.96;0.60;0.03;0.92;-0.19;-28.21;44.10;22.05
10659;-0.37;-10.87;0.66;0.03;0.92;-0.19;-27.79;42.14;24.43
10668;-0.28;-10.78;0.56;0.03;0.92;-0.19;-25.76;38.22;24.92
10677;-0.32;-10.47;0.46;0.04;0.91;-0.19;-23.80;32.76;23.10
10686;-0.09;-10.14;0.27;0.04;0.91;-0.19;-24.50;26.25;20.23
10694;0.06;-10.09;0.15;0.04;0.91;-0.19;-27.37;20.58;18.06
10703;0.05;-10.05;0.65;0.04;0.92;-0.20;-31.85;16.73;17.22
10712;0.24;-10.21;1.07;0.04;0.92;-0.20;-34.58;19.53;19.11
10721;0.45;-10.07;1.45;0.04;0.92;-0.20;-31.85;26.67;21.84
10729;0.57;-10.04;1.87;0.05;0.91;-0.20;-26.39;34.79;24.22
10738;0.55;-9.69;1.76;0.05;0.91;-0.20;-17.71;40.04;19.95
10747;0.60;-9.38;1.35;0.05;0.91;-0.20;-6.23;40.88;7.63
10756;0.37;-9.25;1.16;0.05;0.91;-0.21;6.79;38.36;-6.51
10764;0.11;-9.21;0.83;0.05;0.91;-0.21;12.04;35.35;-19.67
10773;-0.13;-9.25;0.45;0.05;0.91;-0.21;8.75;33.81;-26.04
10782;-0.17;-9.46;0.17;0.06;0.90;-0.20;-3.22;31.01;-25.90
10791;-0.19;-9.40;0.09;0.06;0.90;-0.20;-19.46;28.14;-22.33
10799;-0.29;-9.39;0.06;0.06;0.90;-0.20;-45.85;24.29;-15.40
10808;0.39;-9.64;0.19;0.05;0.90;-0.19;-79.03;15.68;-3.50
10817;1.51;-9.01;0.45;0.05;0.90;-0.19;-114.87;5.95;15.68
10826;2.10;-7.65;0.65;0.05;0.90;-0.19;-178.43;1.75;30.52
10835;1.49;-5.16;4.47;0.05;0.89;-0.21;-242.27;1.33;46.62
10843;5.13;-1.60;1.16;0.05;0.89;-0.21;-350.70;-4.62;77.07
10852;4.26;3.42;3.30;0.05;0.89;-0.21;-498.54;27.65;108.92
10861;6.70;10.52;4.95;0.06;0.83;-0.29;-733.95;65.66;137.83
10870;9.45;16.88;5.46;0.06;0.83;-0.29;-925.82;104.65;98.91
10878;12.63;30.01;9.41;0.06;0.83;-0.29;-1029.70;130.27;80.36
10887;11.85;36.24;15.67;0.10;0.68;-0.40;-1114.75;80.50;-169.89
10896;4.72;27.26;13.53;0.10;0.68;-0.40;-1111.39;108.36;-420.98
10905;-11.60;25.05;13.14;0.10;0.68;-0.40;-1018.92;161.42;-556.57
10913;-29.54;22.89;14.84;0.11;0.48;-0.44;-1034.74;151.27;-551.32
10922;-43.14;18.89;23.02;0.11;0.48;-0.44;-1168.23;19.74;-407.68
10931;-41.84;13.70;36.45;0.11;0.48;-0.44;-1375.36;-87.85;-249.27
10940;-37.94;-1.19;59.08;0.13;0.28;-0.40;-1444.80;-116.97;-136.57
10949;-25.00;-26.02;84.33;0.13;0.28;-0.40;-1300.32;-33.74;-18.27
10958;-4.23;-43.80;87.40;0.13;0.28;-0.40;-723.94;36.75;37.10
10966;-0.70;-37.08;58.68;0.10;0.14;-0.25;146.79;155.26;19.18
10975;-16.20;0.08;36.23;0.10;0.14;-0.25;950.32;241.15;143.57
10984;-26.01;33.04;1.27;0.10;0.14;-0.25;1320.13;85.33;243.32
10993;-12.10;47.34;-22.05;0.15;0.17;-0.35;1068.76;-105.77;280.21
11001;3.55;42.91;-24.54;0.15;0.17;-0.35;441.56;-159.95;185.78
11010;9.94;36.19;-15.35;0.15;0.17;-0.41;-81.83;-41.65;115.01
11019;9.87;24.82;-3.85;0.11;0.27;-0.41;-385.63;30.24;53.97
11028;4.55;14.27;5.78;0.11;0.27;-0.41;-395.36;23.24;-6.58
11036;-0.55;5.13;11.75;0.10;0.21;-0.38;-222.25;-23.10;-58.10
11045;-2.03;-0.38;15.25;0.10;0.21;-0.38;-64.26;-48.16;-58.45
11054;-1.84;-1.22;15.71;0.10;0.21;-0.38;20.86;-25.90;-14.70
11063;-1.84;-0.53;14.12;0.11;0.23;-0.38;48.51;7.63;15.33
11072;-2.31;1.52;11.69;0.11;0.23;-0.38;73.71;31.64;27.72
11080;-1.86;3.12;9.42;0.11;0.23;-0.38;104.51;34.93;33.67
11089;-1.06;5.12;6.75;0.10;0.23;-0.39;115.78;24.36;36.19
11098;0.03;6.86;4.20;0.10;0.23;-0.39;98.84;24.29;25.13
11107;0.64;8.28;2.30;0.10;0.23;-0.39;66.50;25.90;9.45
11115;0.65;7.98;2.25;0.10;0.25;-0.39;17.92;18.41;-2.87
11124;0.73;6.50;3.56;0.10;0.25;-0.39;-28.84;5.88;-8.19
11133;0.72;5.06;6.09;0.10;0.25;-0.39;-47.88;0.70;-11.13
11142;0.88;3.24;8.90;0.11;0.24;-0.39;-34.93;-1.82;-14.28
11151;0.62;1.47;10.36;0.11;0.24;-0.39;-21.00;-1.82;-4.06
11159;0.29;0.73;10.83;0.11;0.24;-0.39;-15.33;-4.20;6.02
11168;-0.14;1.21;10.52;0.11;0.24;-0.38;-7.77;4.69;7.14
11177;-0.78;1.64;10.01;0.11;0.24;-0.38;-1.26;14.07;2.73
11186;-1.23;2.07;9.25;0.11;0.24;-0.38;-1.75;17.36;5.67
11194;-1.34;2.57;8.66;0.11;0.24;-0.37;-2.66;16.66;11.90
11203;-1.28;2.96;8.48;0.11;0.24;-0.37;-4.13;13.93;14.07
11212;-1.19;3.26;8.65;0.11;0.24;-0.37;-4.06;8.61;13.16
11221;-1.11;3.62;9.26;0.11;0.23;-0.39;-0.77;4.69;11.06
11229;-1.02;3.75;9.85;0.11;0.23;-0.39;4.48;3.57;7.84
11238;-1.06;3.60;9.92;0.11;0.23;-0.39;10.92;5.88;6.09
11247;-1.20;3.22;9.71;0.11;0.24;-0.39;21.00;8.61;7.70
11256;-1.30;2.97;9.17;0.11;0.24;-0.39;31.43;8.82;10.57
11264;-1.37;2.74;8.38;0.11;0.24;-0.39;39.90;8.12;12.11
11273;-1.41;2.94;7.87;0.11;0.24;-0.39;37.87;8.19;11.83
11282;-1.47;3.27;7.60;0.11;0.24;-0.39;20.37;10.08;9.24
11291;-1.59;3.27;7.61;0.11;0.24;-0.39;2.38;10.99;8.47
11299;-1.26;3.12;7.93;0.11;0.24;-0.39;-9.31;10.85;9.80
11308;-1.16;3.09;8.21;0.11;0.24;-0.39;-11.20;9.10;9.94
11317;-1.04;3.29;8.53;0.11;0.24;-0.39;-3.22;6.37;8.12
11326;-0.79;3.42;8.56;0.12;0.24;-0.40;6.02;2.52;6.51
11334;-0.73;3.75;8.82;0.12;0.24;-0.40;12.60;-0.70;6.58
11343;-0.66;3.91;8.93;0.12;0.24;-0.40;17.92;-2.66;6.16
11352;-0.75;3.73;9.19;0.11;0.24;-0.38;21.56;-4.34;5.46
11361;-0.65;3.86;9.25;0.11;0.24;-0.38;22.89;-4.48;5.53
11369;-0.56;3.83;9.08;0.11;0.24;-0.39;18.13;-2.17;3.78
11378;-0.72;3.88;9.32;0.11;0.24;-0.39;7.49;1.68;3.57
11387;-0.79;3.60;9.43;0.11;0.24;-0.39;-2.66;2.52;3.15
11396;-0.62;3.42;9.38;0.11;0.24;-0.39;-5.53;2.73;3.71
11404;-0.55;3.41;9.32;0.11;0.24;-0.39;-1.61;0.91;4.41
11413;-0.39;3.48;9.40;0.11;0.24;-0.39;5.74;-0.63;3.71
11422;-0.37;3.78;9.35;0.11;0.24;-0.39;12.46;-2.24;3.85
11431;-0.17;3.79;9.17;0.11;0.24;-0.39;15.82;-2.03;2.31
11440;-0.39;3.81;9.08;0.11;0.24;-0.39;14.42;-0.42;0.49
11448;-0.51;3.68;9.02;0.10;0.25;-0.39;9.24;0.84;-0.56
11457;-0.70;3.33;9.08;0.10;0.25;-0.39;3.99;1.68;-0.98
11466;-0.81;3.22;9.17;0.10;0.25;-0.39;0.77;2.59;-0.49
11475;-0.73;3.19;9.13;0.10;0.24;-0.40;-0.77;4.34;-0.07
11483;-0.87;3.11;9.04;0.10;0.24;-0.40;-0.56;5.53;-1.05
11492;-0.98;3.02;9.02;0.10;0.24;-0.40;0.14;6.23;-1.54
11501;-1.06;2.93;8.94;0.11;0.26;-0.40;-1.12;5.88;-0.63
11510;-1.07;3.01;8.95;0.11;0.26;-0.40;-3.15;6.51;0.28
11518;-1.14;2.91;9.20;0.11;0.26;-0.40;-4.55;7.21;2.52
11527;-1.02;3.07;9.32;0.12;0.25;-0.39;-3.01;7.77;4.48
11536;-0.98;3.18;9.52;0.12;0.25;-0.39;2.59;7.70;4.27
11545;-1.03;3.27;9.44;0.12;0.25;-0.39;9.87;6.51;3.64
11553;-0.88;3.35;9.41;0.11;0.25;-0.40;17.71;4.83;2.80
11562;-0.74;3.40;9.02;0.11;0.25;-0.40;23.31;3.15;0.56
11571;-0.65;3.27;8.73;0.11;0.25;-0.40;25.48;2.59;-0.91
11580;-0.75;3.24;8.41;0.10;0.26;-0.39;24.08;2.87;-1.47
11588;-0.78;3.13;8.52;0.10;0.26;-0.39;18.90;2.66;-0.42
11597;-0.72;3.01;8.67;0.10;0.26;-0.39;12.81;2.52;1.54
11606;-0.73;2.83;9.20;0.11;0.25;-0.39;9.59;3.15;3.78
11615;-0.55;2.84;9.56;0.11;0.25;-0.39;14.56;3.36;5.53
11623;-0.62;2.74;9.76;0.11;0.25;-0.39;26.67;2.59;6.16
11632;-0.71;2.63;9.67;0.10;0.25;-0.41;42.56;-0.77;6.16
11641;-0.76;2.66;9.57;0.10;0.25;-0.41;63.49;-5.74;6.23
11650;-0.85;2.61;9.15;0.10;0.25;-0.41;79.17;-11.20;5.95
11658;-0.95;2.53;9.18;0.10;0.27;-0.41;87.22;-14.56;7.00
11667;-0.74;2.46;8.76;0.10;0.27;-0.41;88.55;-17.29;7.98
11676;-0.95;2.19;8.95;0.10;0.27;-0.41;81.13;-14.21;8.40
11685;-1.00;2.15;8.78;0.11;0.29;-0.41;68.74;-8.54;11.34
11693;-1.18;1.93;9.01;0.11;0.29;-0.41;54.46;-3.57;14.00
11702;-1.19;2.05;9.28;0.11;0.29;-0.41;45.01;1.12;17.71
11711;-1.00;2.05;9.51;0.10;0.31;-0.42;45.50;6.37;20.51
11720;-0.90;1.92;9.63;0.10;0.31;-0.42;53.20;8.47;22.40
11728;-1.06;1.92;9.58;0.10;0.31;-0.42;66.15;7.49;23.52
11737;-1.24;2.04;9.51;0.09;0.31;-0.43;80.22;3.64;25.20
11746;-1.45;1.78;9.53;0.09;0.31;-0.43;94.64;-2.73;26.67
11755;-1.66;1.65;9.51;0.09;0.33;-0.43;108.78;-7.00;28.00
11763;-1.85;1.34;9.49;0.09;0.33;-0.43;117.67;-11.41;28.91
11772;-2.04;0.94;9.48;0.09;0.33;-0.43;123.48;-12.74;30.73
11781;-2.25;0.94;9.30;0.09;0.35;-0.44;124.81;-11.34;32.55
11790;-2.18;0.74;9.26;0.09;0.35;-0.44;120.26;-10.78;33.60
11799;-2.06;0.28;9.20;0.09;0.35;-0.44;114.38;-7.98;34.23
11807;-2.15;0.02;9.22;0.09;0.37;-0.44;106.96;-4.06;37.59
11816;-2.23;-0.01;9.35;0.09;0.37;-0.44;101.15;-0.35;42.28
11825;-2.28;-0.16;9.74;0.09;0.37;-0.44;98.21;3.92;45.50
11834;-2.35;-0.31;10.24;0.10;0.39;-0.45;101.15;6.86;46.13
11842;-2.33;-0.78;10.15;0.10;0.39;-0.45;109.69;7.35;44.87
11851;-2.61;-0.91;10.15;0.10;0.39;-0.45;124.60;11.83;44.31
11860;-2.64;-0.73;10.24;0.09;0.41;-0.44;139.86;3.15;47.25
11869;-2.96;-0.49;9.75;0.09;0.41;-0.44;149.94;0.98;52.08
11877;-2.64;-0.72;9.87;0.09;0.41;-0.44;155.26;-0.49;52.22
11886;-2.20;-0.64;9.67;0.10;0.44;-0.46;157.99;-2.73;54.81
11895;-2.05;-0.76;9.63;0.10;0.44;-0.46;157.15;-4.20;57.12
11904;-2.10;-0.75;9.89;0.10;0.44;-0.46;154.98;-4.83;57.89
11912;-1.92;-1.06;10.12;0.09;0.47;-0.46;153.65;-5.46;56.77
11921;-1.66;-1.49;10.39;0.09;0.47;-0.46;156.66;-4.20;55.02
11930;-1.74;-1.69;10.47;0.09;0.47;-0.46;163.31;-1.47;54.18
11939;-1.90;-2.05;10.29;0.08;0.50;-0.45;171.57;-1.12;54.11
11947;-1.98;-2.39;10.11;0.08;0.50;-0.45;180.81;-2.66;53.34
11956;-1.34;-2.93;9.48;0.08;0.50;-0.45;189.77;-6.44;51.87
11965;-1.16;-3.32;8.66;0.09;0.53;-0.46;197.54;-10.01;50.47
11974;-1.16;-3.40;8.20;0.09;0.53;-0.46;197.05;-13.30;51.03
11983;-0.93;-3.67;7.64;0.09;0.53;-0.46;187.25;-16.45;52.43
11991;-0.93;-3.87;7.65;0.08;0.57;-0.45;171.50;-15.54;53.48
12000;-1.04;-4.21;7.91;0.08;0.57;-0.45;150.08;-10.92;55.51
12009;-1.05;-4.49;8.40;0.08;0.57;-0.45;131.60;-5.81;57.47
12018;-1.11;-4.92;8.76;0.08;0.60;-0.44;115.71;-1.82;58.03
12026;-1.06;-5.25;8.94;0.08;0.60;-0.44;106.47;3.99;57.61
12035;-0.99;-5.69;9.04;0.08;0.60;-0.44;105.56;6.93;57.61
12044;-0.91;-6.12;9.15;0.08;0.62;-0.44;113.26;6.37;56.49
12053;-0.85;-6.41;9.11;0.08;0.62;-0.44;126.98;1.75;54.46
12062;-0.65;-6.73;8.69;0.08;0.62;-0.44;140.21;-4.69;52.43
12070;-0.59;-6.80;8.26;0.09;0.64;-0.43;150.57;-7.42;51.31
12079;-0.32;-7.02;7.90;0.09;0.64;-0.43;153.93;-10.99;52.36
12088;0.17;-7.19;7.47;0.09;0.64;-0.43;153.86;-9.66;53.62
12097;0.06;-7.24;7.33;0.09;0.66;-0.41;151.41;-5.39;55.37
12105;0.06;-7.43;7.04;0.09;0.66;-0.41;146.72;-2.66;56.56
12114;0.28;-7.67;6.81;0.10;0.69;-0.40;141.89;1.54;57.05
12123;0.10;-7.64;6.74;0.10;0.69;-0.40;133.98;5.81;57.54
12132;0.06;-7.76;6.53;0.10;0.69;-0.40;124.74;7.98;57.61
12140;0.27;-7.98;6.46;0.11;0.71;-0.38;116.83;10.08;58.03
12149;0.27;-8.02;6.42;0.11;0.71;-0.38;111.23;12.04;57.89
12158;0.27;-8.13;6.17;0.11;0.71;-0.38;109.83;13.37;57.47
12167;0.33;-8.23;6.03;0.12;0.71;-0.37;111.16;14.63;58.10
12176;0.37;-8.23;6.04;0.12;0.71;-0.37;114.73;17.08;59.71
12184;0.60;-8.43;5.80;0.12;0.71;-0.37;118.93;17.57;62.23
12193;0.76;-8.30;5.49;0.13;0.73;-0.36;124.81;17.57;63.56
12202;0.85;-8.30;5.35;0.13;0.73;-0.36;129.71;17.15;61.67
12211;0.86;-8.00;4.91;0.13;0.73;-0.36;128.38;18.13;64.12
12219;0.93;-7.93;4.43;0.14;0.75;-0.34;122.22;20.44;63.56
12228;0.94;-7.85;4.27;0.14;0.75;-0.34;112.84;23.73;61.18
12237;0.81;-7.83;4.10;0.14;0.75;-0.34;100.59;26.53;59.64
12246;1.03;-8.16;3.71;0.16;0.74;-0.32;85.19;28.42;58.31
12254;1.36;-8.26;3.65;0.16;0.74;-0.32;72.73;29.47;57.05
12263;1.54;-8.31;3.65;0.16;0.74;-0.32;61.95;27.44;55.79
12272;1.79;-8.45;3.88;0.16;0.75;-0.33;55.30;24.71;55.51
12281;2.02;-8.55;4.00;0.16;0.75;-0.33;51.66;23.45;56.14
12289;2.07;-8.75;4.31;0.16;0.75;-0.33;50.54;21.21;57.05
12298;2.16;-8.71;4.39;0.17;0.76;-0.30;53.55;17.15;57.19
12307;2.33;-8.39;4.56;0.17;0.76;-0.30;58.45;12.39;53.69
12316;2.28;-8.40;4.54;0.17;0.76;-0.30;57.75;10.01;50.68
12325;2.61;-8.34;4.45;0.19;0.76;-0.30;50.33;10.22;48.16
12333;2.83;-8.20;4.24;0.19;0.76;-0.30;42.00;13.02;43.19
12342;2.93;-8.37;4.18;0.19;0.76;-0.30;29.82;17.57;38.64
12351;2.81;-8.76;4.08;0.19;0.76;-0.29;20.65;19.53;35.07
12360;2.53;-8.99;4.00;0.19;0.76;-0.29;14.77;18.69;31.78
12369;2.73;-9.42;4.13;0.19;0.76;-0.29;12.60;18.69;28.28
12377;2.63;-9.51;4.19;0.19;0.75;-0.28;13.65;16.45;25.62
12386;2.67;-9.48;4.45;0.19;0.75;-0.28;14.14;14.91;22.47
12395;2.74;-9.56;4.44;0.19;0.75;-0.28;12.32;15.40;21.98
12403;3.27;-9.49;4.42;0.20;0.75;-0.27;12.46;17.78;21.98
12412;3.41;-9.34;4.34;0.20;0.75;-0.27;16.38;21.98;18.62
12421;3.39;-9.23;4.31;0.20;0.75;-0.27;19.74;27.02;16.94
12430;3.46;-9.05;3.97;0.21;0.76;-0.27;20.30;31.01;12.67
12439;3.30;-9.04;3.78;0.21;0.76;-0.27;19.18;34.37;4.55
12447;2.96;-9.22;3.91;0.21;0.76;-0.27;13.09;37.87;-3.08
12456;2.68;-9.35;3.93;0.22;0.75;-0.26;4.48;39.76;-6.44
12465;2.50;-9.51;4.08;0.22;0.75;-0.26;-1.19;41.44;-2.94
12474;2.38;-9.69;4.29;0.22;0.75;-0.26;-6.58;43.68;6.79
12482;2.30;-9.70;4.33;0.22;0.75;-0.26;-10.08;40.81;12.81
12491;2.28;-9.68;4.22;0.22;0.75;-0.26;-5.32;36.61;17.29
12500;1.68;-9.15;4.15;0.23;0.75;-0.26;2.66;29.47;17.71
12509;2.00;-8.94;3.91;0.23;0.75;-0.26;13.02;21.70;18.27
12517;2.35;-8.64;3.65;0.23;0.75;-0.26;22.33;10.85;21.21
12526;2.51;-8.33;3.57;0.23;0.74;-0.24;30.10;2.31;25.41
12535;2.66;-7.97;3.55;0.23;0.74;-0.24;31.71;-2.66;28.28
12544;3.01;-7.71;3.61;0.23;0.74;-0.24;30.38;-4.83;29.96
12552;3.27;-7.62;3.50;0.23;0.74;-0.25;27.93;-3.22;31.99
12561;3.21;-7.71;3.77;0.23;0.74;-0.25;29.82;-1.12;33.67
12570;3.55;-7.72;3.78;0.23;0.74;-0.25;30.45;5.11;28.91
12579;3.42;-7.95;3.59;0.22;0.75;-0.24;33.81;7.07;28.07
12587;3.68;-7.75;3.45;0.22;0.75;-0.24;39.76;7.35;26.25
12596;3.89;-7.75;3.12;0.22;0.75;-0.24;43.61;11.20;20.51
12605;3.77;-7.62;2.65;0.24;0.74;-0.25;44.03;14.91;18.20
12614;3.67;-7.50;2.62;0.24;0.74;-0.25;41.93;14.84;21.14
12622;3.68;-7.64;2.28;0.24;0.74;-0.25;40.18;12.04;26.60
12631;3.76;-7.52;2.45;0.23;0.74;-0.24;39.48;5.81;31.64
12640;3.93;-7.49;2.61;0.23;0.74;-0.24;42.91;-0.28;35.84
12649;4.24;-7.49;2.64;0.23;0.74;-0.24;47.81;-4.76;36.26
12658;4.34;-7.45;2.54;0.24;0.73;-0.23;52.29;-7.63;35.84
12666;4.57;-7.29;2.47;0.24;0.73;-0.23;55.23;-9.59;36.47
12675;4.77;-7.22;2.28;0.24;0.73;-0.23;54.04;-9.17;34.44
12684;5.05;-7.13;2.00;0.25;0.73;-0.23;48.86;-6.72;28.42
12692;5.18;-7.29;1.64;0.25;0.73;-0.23;43.05;-3.29;21.14
12701;4.88;-7.14;1.59;0.25;0.73;-0.23;34.79;4.48;17.08
12710;4.62;-7.33;1.32;0.25;0.74;-0.21;22.96;9.10;14.84
12719;4.44;-7.47;1.28;0.25;0.74;-0.21;12.88;11.97;14.84
12728;4.32;-7.66;1.39;0.25;0.74;-0.21;6.51;11.97;14.35
12736;4.24;-7.81;1.49;0.25;0.74;-0.20;5.18;9.10;15.19
12745;4.13;-7.80;1.60;0.25;0.74;-0.20;9.66;3.85;15.47
12754;4.37;-7.64;1.39;0.25;0.74;-0.20;15.82;-3.50;14.70
12763;4.45;-7.44;1.64;0.25;0.74;-0.21;20.51;-8.54;12.88
12771;4.83;-7.27;1.69;0.25;0.74;-0.21;21.91;-11.76;10.15
12780;4.88;-7.11;1.69;0.25;0.74;-0.21;20.09;-9.87;5.18
12789;4.97;-7.12;1.80;0.26;0.73;-0.20;16.10;-5.32;0.28
12798;4.93;-7.19;1.68;0.26;0.73;-0.20;9.80;-0.14;-3.78
12806;4.80;-7.24;1.62;0.26;0.73;-0.20;4.76;5.18;-6.58
12815;4.78;-7.41;1.48;0.26;0.75;-0.20;-0.35;9.45;-10.29
12824;4.49;-7.60;1.51;0.26;0.75;-0.20;-3.85;11.34;-13.37
12833;4.32;-7.75;1.52;0.26;0.73;-0.21;-5.18;10.99;-15.89
12841;4.34;-7.85;1.59;0.25;0.73;-0.21;-5.67;10.99;-17.50
12850;4.01;-8.11;1.67;0.25;0.73;-0.21;-6.30;9.59;-18.90
12859;3.76;-8.41;1.79;0.26;0.75;-0.20;-7.07;7.84;-20.30
12868;3.65;-8.61;1.88;0.26;0.75;-0.20;-5.04;4.83;-21.63
12876;3.55;-8.86;1.87;0.26;0.75;-0.20;-2.45;4.06;-24.01
12885;3.51;-9.20;2.06;0.25;0.75;-0.21;17.57;4.90;-24.71
12894;3.27;-9.39;1.89;0.25;0.75;-0.21;0.49;7.21;-24.92
12903;3.19;-9.66;1.86;0.25;0.75;-0.21;0.91;9.52;-24.36
12911;3.04;-9.73;1.69;0.25;0.75;-0.19;0.21;10.36;-21.49
12920;3.04;-9.69;1.68;0.25;0.75;-0.19;-2.17;9.52;-19.25
12929;2.98;-9.58;1.69;0.25;0.75;-0.19;-4.48;7.91;-16.80
12938;2.94;-9.50;1.86;0.25;0.76;-0.20;-5.88;5.95;-13.93
12946;2.98;-9.64;1.92;0.25;0.76;-0.20;-5.25;2.87;-11.97
12955;2.95;-9.73;2.02;0.25;0.76;-0.20;-2.73;0.35;-10.50
12964;2.96;-9.65;2.07;0.25;0.75;-0.20;0.07;-0.63;-9.38
12973;3.10;-9.55;1.92;0.25;0.75;-0.20;1.33;-1.26;-7.91
12981;3.08;-9.35;2.02;0.25;0.75;-0.20;1.12;-1.40;-7.49
12990;3.24;-9.22;2.06;0.24;0.76;-0.20;0.63;-1.26;-7.42
12999;3.27;-9.12;1.94;0.24;0.76;-0.20;0.07;-1.19;-7.98
13008;3.42;-9.11;1.92;0.24;0.76;-0.20;0.28;-1.54;-8.26
13017;3.51;-8.89;1.82;0.24;0.77;-0.21;1.05;-2.17;-8.96
13025;3.57;-8.89;1.87;0.24;0.77;-0.21;1.05;-3.50;-10.64
13034;3.68;-8.91;1.95;0.24;0.77;-0.21;3.08;-4.06;-13.09
13043;3.70;-8.96;1.69;0.24;0.76;-0.21;5.60;-4.48;-13.51
13052;3.63;-8.86;1.59;0.24;0.76;-0.21;6.58;-4.83;-14.63
13060;3.73;-8.86;1.47;0.24;0.76;-0.21;6.09;-7.00;-15.40
13069;3.79;-8.74;1.20;0.23;0.76;-0.20;6.72;-10.08;-16.52
13078;4.04;-8.68;1.16;0.23;0.76;-0.20;6.72;-13.02;-19.11
13087;4.26;-8.48;1.19;0.23;0.76;-0.20;6.09;-14.42;-22.75
13096;4.28;-8.48;1.17;0.24;0.77;-0.19;4.06;-14.77;-25.20
13105;4.35;-8.36;1.31;0.24;0.77;-0.19;1.89;-16.10;-27.02
13113;4.54;-8.18;1.41;0.24;0.77;-0.19;0.07;-17.50;-29.89
13122;4.66;-8.10;1.57;0.22;0.77;-0.21;1.61;-20.58;-32.69
13131;4.77;-8.05;1.59;0.22;0.77;-0.21;7.42;-24.92;-36.47
13140;4.84;-8.00;1.65;0.22;0.77;-0.21;16.45;-30.03;-41.02
13148;4.89;-7.82;1.68;0.22;0.78;-0.20;24.85;-34.16;-47.60
13157;4.67;-7.95;1.84;0.22;0.78;-0.20;30.24;-36.40;-52.29
13166;4.64;-7.77;1.99;0.22;0.78;-0.20;31.92;-36.75;-55.09
13175;4.67;-7.86;1.90;0.22;0.79;-0.20;30.59;-35.70;-59.29
13184;4.62;-7.85;1.91;0.22;0.79;-0.20;28.35;-31.85;-62.09
13193;4.49;-8.00;1.86;0.19;0.79;-0.21;26.95;-28.84;-64.68
13201;4.13;-8.22;1.72;0.19;0.79;-0.21;25.83;-26.46;-67.76
13210;4.06;-8.06;1.62;0.19;0.79;-0.21;22.89;-22.05;-70.28
13219;3.99;-8.03;1.70;0.18;0.81;-0.19;18.06;-17.92;-71.47
13228;3.98;-7.92;1.65;0.18;0.81;-0.19;12.32;-13.72;-72.59
13236;1.87;-7.82;1.72;0.18;0.81;-0.19;6.09;-10.64;-75.18
13245;3.63;-7.87;1.87;0.18;0.82;-0.20;2.31;-8.75;-78.05
13254;3.48;-7.77;1.70;0.18;0.82;-0.20;0.98;-6.86;-80.64
13263;3.40;-7.96;1.92;0.18;0.82;-0.20;0.84;-5.39;-82.60
13272;3.19;-8.15;1.90;0.16;0.83;-0.20;0.00;-3.99;-84.56
13280;2.71;-8.56;2.06;0.16;0.83;-0.20;0.84;-3.92;-85.82
13289;2.26;-8.92;2.14;0.16;0.83;-0.20;6.23;-5.46;-86.80
13298;1.83;-9.35;2.07;0.15;0.85;-0.19;13.51;-9.80;-87.57
13307;1.44;-9.53;2.09;0.15;0.85;-0.19;19.67;-14.14;-87.36
13315;1.41;-9.46;1.93;0.15;0.85;-0.19;22.61;-15.75;-85.96
13324;1.55;-9.29;1.72;0.13;0.86;-0.20;16.45;-10.22;-83.79
13333;1.71;-9.04;1.58;0.13;0.86;-0.20;3.99;-0.28;-81.48
13342;1.67;-9.20;1.59;0.13;0.86;-0.20;-11.62;14.42;-79.59
13351;1.06;-9.50;1.64;0.10;0.86;-0.19;-22.82;22.61;-80.78
13359;0.72;-9.77;1.64;0.10;0.86;-0.19;-23.38;23.45;-83.86
13368;0.29;-9.99;1.41;0.10;0.86;-0.19;-19.67;20.23;-86.45
13377;-0.19;-9.99;1.36;0.10;0.88;-0.19;-14.77;11.06;-88.69
13386;-0.63;-9.94;1.21;0.10;0.88;-0.19;-9.38;-0.63;-90.86
13395;-0.34;-9.78;1.07;0.10;0.88;-0.19;-6.02;-8.96;-90.37
13403;-0.18;-9.58;1.18;0.08;0.88;-0.19;-7.91;-13.09;-89.04
13412;-0.29;-9.51;1.20;0.08;0.88;-0.19;-13.72;-14.07;-87.92
13421;-0.31;-9.32;1.37;0.08;0.88;-0.19;-19.04;-14.56;-89.18
13430;-0.30;-11.03;1.67;0.06;0.89;-0.21;-21.56;-13.02;-92.61
13438;-0.45;-9.26;1.71;0.06;0.89;-0.21;-25.20;-11.48;-95.62
13447;-0.73;-9.28;1.96;0.06;0.89;-0.21;-28.42;-10.57;-98.21
13456;-0.62;-9.31;1.98;0.04;0.89;-0.21;-30.87;-9.73;-97.09
13465;-0.51;-9.40;2.05;0.04;0.89;-0.21;-33.60;-8.75;-94.08
13474;0.09;-9.32;2.20;0.04;0.89;-0.21;-38.85;-10.71;-91.21
13482;0.63;-8.65;2.40;0.03;0.91;-0.21;-49.00;-17.08;-84.07
13491;1.75;-7.96;2.72;0.03;0.91;-0.21;-59.22;-27.16;-72.38
13500;5.41;-6.45;3.20;0.03;0.90;-0.22;-76.79;-41.65;-64.33
13509;6.61;-3.50;3.32;0.01;0.90;-0.22;-99.33;-61.18;-70.70
13517;10.40;0.09;2.56;0.01;0.90;-0.22;-143.29;-52.15;-100.03
13526;13.73;5.64;4.47;-0.02;0.88;-0.25;-195.44;-19.53;-169.40
13535;11.62;12.64;3.88;-0.02;0.88;-0.25;-301.42;47.67;-251.93
13544;6.95;21.49;2.62;-0.02;0.88;-0.25;-387.31;187.18;-365.40
13553;2.93;21.77;4.47;-0.06;0.83;-0.31;-636.23;335.16;-529.83
13561;-10.07;22.99;6.68;-0.06;0.83;-0.31;-842.17;450.10;-616.00
13570;-29.82;25.07;12.99;-0.06;0.83;-0.31;-1096.83;529.76;-573.44
13579;-40.23;25.40;21.87;-0.05;0.67;-0.44;-1390.13;487.83;-460.25
13588;-43.92;21.09;37.04;-0.05;0.67;-0.44;-1552.04;328.23;-287.28
13597;-43.46;14.41;50.48;-0.05;0.67;-0.44;-1548.40;78.19;-179.41
13606;-34.82;-1.17;66.14;-0.01;0.37;-0.46;-1246.21;-93.17;-136.01
13615;-19.35;-32.71;74.24;-0.01;0.37;-0.46;-806.33;-155.12;-162.75
13623;-6.46;-43.91;66.03;-0.01;0.37;-0.46;-337.40;-8.47;-169.19
13632;-1.67;-34.98;47.33;-0.03;0.24;-0.41;170.80;258.02;-101.71
13641;-10.38;-4.84;21.47;-0.03;0.24;-0.41;508.83;417.55;19.32
13650;-19.83;18.07;-5.23;-0.03;0.24;-0.41;637.21;384.65;162.47
13659;-17.23;26.29;-19.26;0.08;0.30;-0.44;459.34;175.00;211.12
13667;-4.13;26.24;-21.49;0.08;0.30;-0.44;98.91;27.86;157.29
13676;4.49;22.39;-12.95;0.08;0.30;-0.44;-166.04;28.49;99.33
13685;4.52;16.93;-3.01;0.08;0.31;-0.43;-316.61;66.50;48.30
13694;1.25;9.71;4.72;0.08;0.31;-0.43;-306.25;56.56;12.25
13703;-2.23;3.43;9.32;0.08;0.31;-0.43;-205.80;4.06;-26.32
13711;-3.16;-0.98;10.93;0.08;0.25;-0.41;-79.87;-20.72;-39.62
13720;-2.16;-1.91;10.59;0.08;0.25;-0.41;-8.68;-7.63;-13.51
13729;-1.42;-0.33;9.96;0.08;0.25;-0.41;7.70;20.93;15.12
13738;-1.15;1.92;8.74;0.08;0.26;-0.40;25.34;42.56;20.65
13746;-1.56;5.45;8.41;0.08;0.26;-0.40;43.26;47.60;10.99
13755;-0.40;4.23;6.37;0.08;0.26;-0.40;43.82;56.28;7.00
13764;-0.21;4.71;5.00;0.08;0.27;-0.41;21.98;61.53;-6.23
13773;-1.36;4.67;4.74;0.08;0.27;-0.41;8.75;59.85;2.73
13781;-1.90;3.60;5.02;0.08;0.27;-0.41;4.06;47.32;16.94
13790;-1.54;2.76;5.76;0.09;0.27;-0.40;-8.40;29.68;14.84
13799;-1.30;2.53;7.18;0.09;0.27;-0.40;-9.45;8.05;20.79
13808;-0.52;1.94;8.34;0.09;0.27;-0.41;11.27;-2.31;33.88
13817;1.82;2.01;9.23;0.10;0.27;-0.41;35.98;-8.47;35.98
13825;-0.01;2.30;9.66;0.10;0.27;-0.41;62.58;-3.85;33.46
13834;0.14;2.51;9.73;0.09;0.28;-0.41;65.31;-10.85;27.86
13843;-0.04;3.03;9.79;0.09;0.28;-0.41;44.24;-11.97;17.99
13852;-1.84;3.41;9.82;0.09;0.28;-0.41;21.49;-1.05;8.12
13860;-0.14;3.52;10.16;0.09;0.28;-0.42;5.39;14.49;2.73
13869;-0.70;3.14;10.57;0.09;0.28;-0.42;-8.26;19.67;3.29
13878;-1.37;2.68;10.62;0.09;0.28;-0.42;-18.06;21.49;2.24
13887;-1.59;2.47;10.77;0.10;0.27;-0.41;-10.78;20.51;2.38
13895;-1.56;2.36;10.46;0.10;0.27;-0.41;3.78;14.42;4.06
13904;-1.51;2.68;10.45;0.10;0.27;-0.41;16.38;9.87;5.39
13913;-1.67;3.00;10.13;0.09;0.27;-0.40;26.25;6.72;7.35
13922;-1.65;2.94;9.94;0.09;0.27;-0.40;33.11;5.53;8.40
13930;-1.34;3.15;9.51;0.09;0.27;-0.40;39.62;5.81;9.24
13939;-1.11;3.13;9.00;0.10;0.28;-0.41;40.32;11.20;6.58
13948;-1.44;3.07;8.69;0.10;0.28;-0.41;26.67;19.88;4.34
13957;-1.85;2.98;8.51;0.10;0.28;-0.41;10.57;22.96;6.30
13966;-1.87;2.77;8.56;0.10;0.30;-0.40;0.00;22.40;9.45
13974;-1.82;2.58;8.61;0.10;0.30;-0.40;-4.97;17.78;10.85
13983;-1.48;2.71;8.89;0.10;0.30;-0.40;-1.47;12.81;12.46
13992;-1.16;2.90;8.64;0.09;0.29;-0.41;9.03;8.19;12.74
14001;-0.96;3.38;8.51;0.09;0.29;-0.41;22.26;3.01;11.48
14009;-0.80;3.61;8.27;0.09;0.29;-0.41;30.45;-2.24;8.75
14018;-0.70;3.69;8.08;0.10;0.30;-0.41;28.49;-3.22;6.37
14027;-0.75;3.68;8.38;0.10;0.30;-0.41;16.31;-3.01;4.27
14036;-0.65;3.59;8.66;0.10;0.30;-0.41;3.64;-1.82;1.12
14044;-0.78;3.32;9.15;0.10;0.29;-0.42;-7.35;1.26;-1.75
14053;-0.86;3.00;9.63;0.10;0.29;-0.42;-15.40;6.37;-3.29
14062;-1.07;2.51;9.92;0.10;0.29;-0.42;-16.80;9.17;-2.94
14071;-0.96;2.23;9.86;0.09;0.30;-0.41;-9.80;9.17;-0.98
14079;-0.80;2.18;9.55;0.09;0.30;-0.41;5.18;6.72;-0.42
14088;-0.85;2.15;8.93;0.09;0.30;-0.41;20.30;2.52;-0.77
14097;-0.70;2.32;8.34;0.11;0.30;-0.41;27.86;-1.54;0.63
14106;-0.79;2.65;8.32;0.11;0.30;-0.41;27.44;-6.79;2.66
14114;-0.73;2.88;8.38;0.11;0.30;-0.41;19.67;-11.83;7.07
14123;-0.54;3.01;8.80;0.10;0.30;-0.42;8.05;-9.52;7.07
14132;-0.47;3.06;9.21;0.10;0.30;-0.42;-2.87;-6.30;5.25
14141;-0.43;2.81;9.69;0.10;0.30;-0.42;-8.96;-2.38;2.52
14149;-0.47;2.67;9.78;0.10;0.31;-0.43;-8.26;2.24;-0.35
14158;-0.73;2.56;9.69;0.10;0.31;-0.43;-2.24;5.67;-1.26
14167;-0.88;2.37;9.38;0.10;0.31;-0.43;6.72;6.65;-1.89
14176;-1.14;2.19;9.04;0.09;0.30;-0.41;14.49;4.20;-2.45
14184;-1.44;2.09;8.87;0.09;0.30;-0.41;18.06;0.07;-1.19
14193;-1.55;2.10;8.87;0.10;0.31;-0.42;17.36;-4.62;1.05
14202;-1.54;2.18;9.25;0.10;0.31;-0.42;14.00;-6.51;4.06
14211;-1.45;2.18;9.57;0.10;0.31;-0.42;9.94;-6.79;5.88
14219;-1.29;2.27;9.83;0.10;0.30;-0.43;7.70;-5.04;6.79
14228;-1.19;2.23;9.90;0.10;0.30;-0.43;7.00;-3.50;7.00
14237;-1.16;2.16;9.90;0.10;0.30;-0.43;8.26;-2.45;5.53
14246;-1.00;2.23;9.56;0.08;0.31;-0.43;13.72;0.14;3.85
14254;-0.89;2.28;9.22;0.08;0.31;-0.43;18.76;0.14;2.52
14263;-0.90;2.32;8.86;0.08;0.31;-0.43;22.12;-0.49;1.40
14272;-1.03;2.42;8.91;0.10;0.31;-0.42;20.79;-0.56;1.33
14281;-1.06;2.45;8.94;0.10;0.31;-0.42;17.01;-2.17;2.38
14289;-1.09;2.43;8.98;0.10;0.31;-0.42;13.58;-3.50;3.15
14298;-0.94;2.47;9.08;0.08;0.31;-0.42;11.83;-3.50;3.43
14307;-0.85;2.47;9.01;0.08;0.31;-0.42;8.40;-0.84;2.94
14316;-0.90;2.43;7.37;0.08;0.31;-0.42;2.38;2.59;3.22
14324;-0.93;2.25;9.12;0.09;0.32;-0.43;0.07;3.92;3.71
14333;-1.11;2.23;9.21;0.09;0.32;-0.43;2.52;3.36;3.36
14342;-1.14;2.18;9.27;0.09;0.32;-0.43;7.98;1.26;2.66
14351;-1.28;2.00;9.35;0.09;0.31;-0.41;16.94;-1.54;2.59
14360;-1.41;1.88;9.16;0.09;0.31;-0.41;25.83;-4.06;2.45
14368;-1.37;1.64;9.15;0.09;0.31;-0.41;33.74;-5.25;3.15
14377;-1.46;1.67;9.02;0.09;0.32;-0.43;37.94;-5.67;5.04
14386;-1.62;1.66;8.92;0.09;0.32;-0.43;38.22;-4.76;6.37
14395;-1.64;1.69;9.17;0.09;0.32;-0.43;34.02;-2.94;7.98
14403;-1.82;1.64;9.17;0.09;0.33;-0.43;28.84;-0.35;9.59
14412;-1.61;1.51;9.55;0.09;0.33;-0.43;27.58;1.40;12.25
14421;-1.47;1.60;9.64;0.09;0.33;-0.43;37.94;1.05;14.42
14430;-1.33;1.62;9.35;0.08;0.33;-0.44;54.88;-0.63;14.77
14439;-1.47;1.40;9.19;0.08;0.33;-0.44;74.06;-5.32;13.79
14447;-3.81;3.67;3.53;0.08;0.33;-0.44;87.92;-27.23;3.71
14456;-2.00;1.22;8.94;0.09;0.35;-0.42;107.59;-23.94;14.98
14465;-2.05;1.05;8.94;0.09;0.35;-0.42;119.21;-31.50;16.80
14474;-2.18;0.92;9.32;0.09;0.35;-0.42;125.58;-38.29;19.46
14482;-2.23;0.80;9.70;0.08;0.37;-0.46;129.50;-39.76;22.33
14491;-2.23;0.80;9.92;0.08;0.37;-0.46;131.18;-38.71;24.43
14500;-2.34;0.79;10.16;0.08;0.37;-0.46;131.88;-36.61;25.34
14509;-2.48;0.46;10.24;0.07;0.39;-0.45;134.26;-32.48;25.34
14517;-2.12;0.12;10.14;0.07;0.39;-0.45;138.60;-30.24;24.08
14526;-1.57;-0.57;9.40;0.07;0.39;-0.45;141.40;-26.88;22.05
14535;-1.41;-1.16;8.98;0.06;0.42;-0.47;141.89;-18.97;21.21
14544;-1.95;-0.82;8.61;0.06;0.42;-0.47;137.55;-11.20;23.45
14553;-2.25;-0.38;8.46;0.06;0.45;-0.47;126.07;-10.71;25.20
14561;-2.53;-0.11;8.61;0.06;0.45;-0.47;111.86;-13.86;26.46
14570;-2.62;-0.17;8.82;0.06;0.45;-0.47;98.91;-15.54;30.38
14579;-2.53;-0.12;9.07;0.05;0.47;-0.46;88.06;-16.45;31.71
14588;-2.14;-0.29;9.27;0.05;0.47;-0.46;78.26;-15.75;32.83
14597;-1.86;-0.60;9.25;0.05;0.47;-0.46;70.49;-12.11;31.92
14605;-1.74;-0.90;9.53;0.06;0.48;-0.46;64.75;-8.68;30.94
14614;-1.77;-1.32;9.53;0.06;0.48;-0.46;59.71;-5.32;30.73
14623;-1.89;-1.59;9.62;0.06;0.48;-0.46;55.86;0.63;32.06
14632;-2.23;-1.72;9.58;0.05;0.50;-0.47;52.92;5.46;33.74
14641;-2.31;-1.83;9.19;0.05;0.50;-0.47;49.21;10.15;35.91
14649;-2.38;-1.71;8.98;0.05;0.50;-0.47;45.43;12.11;37.45
14658;-2.43;-1.58;8.50;0.06;0.51;-0.46;39.41;11.27;37.17
14667;-2.44;-1.37;8.25;0.06;0.51;-0.46;29.61;10.57;35.91
14676;-2.54;-1.29;8.30;0.06;0.51;-0.46;10.92;8.61;35.84
14685;-2.54;-1.57;8.54;0.06;0.51;-0.47;-7.56;7.21;37.59
14693;-2.30;-1.90;9.04;0.06;0.51;-0.47;-22.05;7.35;39.90
14702;-2.27;-2.05;9.66;0.06;0.51;-0.47;-30.59;7.07;40.53
14711;-2.17;-2.38;10.04;0.05;0.50;-0.48;-31.99;7.28;40.11
14720;-2.05;-2.74;10.29;0.05;0.50;-0.48;-28.21;9.31;40.11
14728;-2.08;-3.04;10.34;0.05;0.50;-0.48;-21.77;11.48;40.81
14737;-2.27;-3.33;10.39;0.07;0.49;-0.45;-12.32;11.62;41.44
14746;-2.57;-3.52;10.25;0.07;0.49;-0.45;1.61;4.83;42.84
14755;-2.58;-3.35;10.10;0.07;0.49;-0.45;22.12;-3.64;42.56
14763;-2.61;-3.08;9.63;0.07;0.50;-0.46;36.40;-12.60;40.60
14772;-2.56;-2.91;9.40;0.07;0.50;-0.46;46.83;-23.73;36.33
14781;-2.38;-2.79;9.10;0.07;0.50;-0.46;51.73;-29.75;35.70
14790;-2.38;-2.47;8.89;0.06;0.50;-0.47;46.27;-34.58;35.84
14799;-1.97;-2.57;9.10;0.06;0.50;-0.47;36.61;-31.15;40.81
14807;-1.84;-2.91;9.27;0.06;0.50;-0.47;26.74;-25.69;44.66
14816;-1.75;-3.45;9.73;0.05;0.51;-0.48;27.51;-21.21;49.14
14825;-1.84;-4.23;10.46;0.05;0.51;-0.48;46.69;-24.99;53.13
14834;-2.07;-4.74;10.84;0.05;0.51;-0.48;84.84;-36.33;54.46
14842;-2.00;-4.57;10.53;0.06;0.51;-0.47;132.86;-57.68;52.85
14851;-1.83;-4.29;10.16;0.06;0.51;-0.47;181.79;-74.48;47.74
14860;-1.84;-3.56;9.38;0.06;0.55;-0.46;206.15;-86.66;44.87
14869;-1.82;-3.40;8.49;0.05;0.55;-0.46;208.67;-95.48;44.94
14878;-1.75;-3.34;7.84;0.05;0.55;-0.46;195.79;-95.55;46.20
14886;-1.62;-3.32;7.26;0.02;0.59;-0.46;177.66;-85.89;47.39
14895;-1.54;-4.10;7.33;0.02;0.59;-0.46;158.69;-71.12;47.88
14904;-1.67;-4.75;7.76;0.02;0.59;-0.46;141.54;-52.99;49.56
14913;-2.23;-5.58;8.38;0.02;0.62;-0.45;132.93;-44.52;50.89
14922;-2.27;-6.23;8.92;0.02;0.62;-0.45;138.74;-46.62;52.78
14931;-2.21;-6.40;9.01;0.02;0.62;-0.45;159.46;-51.17;51.31
14939;-2.01;-5.97;8.89;-0.01;0.64;-0.44;190.54;-61.04;42.70
14948;-1.77;-5.54;8.33;-0.01;0.64;-0.44;212.73;-68.32;28.35
14957;-1.70;-5.36;7.61;-0.01;0.64;-0.44;218.75;-69.44;14.21
14966;-1.50;-5.43;7.00;-0.01;0.69;-0.42;204.54;-59.99;5.46
14974;-1.83;-5.64;6.45;-0.01;0.69;-0.42;172.34;-44.03;5.32
14983;-1.58;-6.31;6.14;-0.01;0.69;-0.42;140.84;-25.90;8.68
14992;-2.08;-7.43;6.52;-0.02;0.73;-0.42;118.79;-14.49;11.27
15001;-2.15;-7.88;6.56;-0.02;0.73;-0.42;118.16;-14.63;12.18
complete
