Time(ms);AccX(m/s^2);AccY(m/s^2);AccZ(m/s^2);MagX(gauss);MagY(gauss);MagZ(gauss);GyroX(dps);GyroY(dps);GyroZ(dps)
33;-4.55;-9.20;-0.66;-0.18;0.90;-0.17;-6.44;-7.07;-2.73
41;-4.66;-9.30;-0.69;-0.18;0.90;-0.17;-5.25;-6.23;-1.75
50;-4.74;-9.29;-0.73;-0.18;0.90;-0.17;-5.67;-6.79;-2.03
59;-4.87;-9.38;-0.64;-0.20;0.88;-0.19;-5.11;-7.00;-1.19
68;-4.74;-9.33;-0.58;-0.20;0.88;-0.19;-3.78;-7.35;-1.19
77;-4.66;-9.29;-0.52;-0.20;0.88;-0.19;-3.15;-6.72;-0.56
85;-4.69;-9.32;-0.47;-0.19;0.89;-0.16;-3.78;-6.02;-0.49
94;-4.60;-9.15;-0.42;-0.19;0.89;-0.16;-4.34;-5.46;-0.14
103;-4.60;-9.08;-0.68;-0.19;0.89;-0.16;-4.55;-4.76;-0.35
112;-4.54;-9.04;-0.54;-0.19;0.88;-0.17;-3.92;-4.97;-1.40
121;-4.75;-9.04;-0.55;-0.19;0.88;-0.17;-4.06;-5.04;-1.33
130;-4.43;-9.05;-0.64;-0.19;0.88;-0.17;-4.06;-4.76;-0.91
138;-4.44;-8.97;-0.54;-0.19;0.89;-0.19;-3.57;-3.43;-1.33
147;-4.40;-8.94;-0.61;-0.19;0.89;-0.19;-3.01;-2.38;-1.26
156;-4.35;-8.94;-0.62;-0.19;0.90;-0.17;-2.10;-0.35;-1.61
165;-4.44;-8.99;-0.75;-0.19;0.90;-0.17;-0.14;0.77;-1.47
174;-4.34;-9.11;-0.81;-0.19;0.90;-0.17;0.77;1.40;-1.33
182;-4.46;-9.15;-0.88;-0.20;0.90;-0.17;1.05;1.33;-1.12
191;-4.41;-9.20;-0.96;-0.20;0.90;-0.17;1.05;0.42;-0.98
200;-4.42;-9.29;-1.05;-0.20;0.90;-0.17;-0.35;0.28;-0.49
209;-4.42;-9.17;-1.18;-0.19;0.89;-0.17;-2.10;-0.14;0.00
218;-4.56;-9.09;-1.17;-0.19;0.89;-0.17;-3.64;-0.70;0.49
226;-4.43;-9.16;-0.85;-0.19;0.89;-0.17;-3.08;-0.98;1.12
235;-4.49;-9.08;-0.73;-0.18;0.89;-0.17;-2.94;-1.12;1.19
244;-4.51;-9.12;-0.73;-0.18;0.89;-0.17;-2.24;-0.84;1.19
253;-4.31;-9.16;-0.62;-0.18;0.89;-0.17;-1.75;0.00;1.54
262;-4.40;-9.30;-0.65;-0.19;0.89;-0.18;-0.84;-0.28;2.38
270;-4.44;-9.50;-0.74;-0.19;0.89;-0.18;-0.35;-0.70;3.36
279;-4.30;-9.47;-0.89;-0.19;0.89;-0.18;0.07;-2.03;3.85
288;-4.24;-9.46;-0.72;-0.19;0.89;-0.17;0.49;-2.73;4.41
297;-4.31;-9.32;-0.69;-0.19;0.89;-0.17;0.56;-2.59;4.90
306;-4.33;-9.16;-0.72;-0.19;0.89;-0.17;0.21;-3.43;4.83
314;-4.36;-9.10;-0.80;-0.19;0.89;-0.18;-0.56;-2.66;3.71
323;-4.26;-8.97;-0.87;-0.19;0.89;-0.18;-1.75;-1.82;3.43
332;-4.32;-8.99;-0.93;-0.19;0.89;-0.18;-2.52;-1.33;2.66
341;-4.26;-9.04;-0.76;-0.18;0.89;-0.18;-3.29;-1.54;1.26
350;-4.35;-9.20;-0.76;-0.18;0.89;-0.18;-4.06;-1.75;1.61
359;-4.27;-9.23;-0.73;-0.18;0.89;-0.18;-4.76;-2.10;1.89
367;-4.26;-9.21;-0.85;-0.18;0.89;-0.17;-4.69;-2.24;2.03
376;-4.21;-9.27;-0.78;-0.18;0.89;-0.17;-5.25;-2.52;2.03
385;-4.19;-9.27;-0.73;-0.18;0.89;-0.17;-6.44;-2.52;1.68
394;-4.34;-9.30;-0.75;-0.19;0.89;-0.18;-7.70;-2.52;1.33
403;-4.32;-9.36;-0.79;-0.19;0.89;-0.18;-9.38;-2.03;1.82
411;-4.47;-9.37;-0.74;-0.19;0.89;-0.18;-12.32;-1.54;1.12
420;-4.39;-9.38;-0.63;-0.18;0.89;-0.19;-14.77;-1.33;0.77
429;-4.39;-9.48;-0.45;-0.18;0.89;-0.19;-17.22;0.35;1.19
438;-4.41;-9.48;-0.46;-0.19;0.89;-0.18;-18.41;0.21;1.26
447;-4.29;-9.45;-0.33;-0.19;0.89;-0.18;-17.57;0.00;1.75
456;-4.26;-9.43;-0.33;-0.19;0.89;-0.18;-15.89;-0.77;3.71
464;-4.08;-9.38;-0.23;-0.18;0.88;-0.18;-13.23;-1.33;4.41
473;-4.00;-7.39;-0.19;-0.18;0.88;-0.18;-10.85;-1.54;4.62
482;-3.94;-9.20;-0.15;-0.18;0.88;-0.18;-8.61;-2.17;4.97
491;-3.98;-9.06;-0.22;-0.19;0.89;-0.18;-7.14;-2.10;4.48
500;-4.00;-9.03;-0.19;-0.19;0.89;-0.18;-6.93;-1.75;3.50
508;-4.00;-9.07;-0.24;-0.19;0.89;-0.18;-8.82;-0.56;2.24
517;-4.07;-9.06;-0.11;-0.19;0.88;-0.20;-10.50;0.07;1.40
526;-3.96;-9.08;-0.21;-0.19;0.88;-0.20;-11.76;0.77;0.98
535;-3.96;-9.08;-0.11;-0.19;0.88;-0.20;-12.39;0.42;0.42
544;-4.03;-9.10;-0.13;-0.18;0.88;-0.19;-11.20;-17.78;0.35
552;-3.91;-9.21;-0.08;-0.18;0.88;-0.19;-9.66;-0.56;0.21
561;-3.91;-9.17;0.04;-0.18;0.88;-0.19;-9.03;-0.35;-0.07
570;-3.96;-9.20;-0.20;-0.18;0.87;-0.19;-8.82;0.21;0.84
579;-3.87;-9.33;-0.29;-0.18;0.87;-0.19;-8.68;0.70;0.91
588;-4.14;-9.31;-0.31;-0.18;0.87;-0.19;-8.05;0.14;1.61
597;-4.14;-9.49;-0.29;-0.19;0.88;-0.19;-7.14;-1.19;2.31
605;-4.26;-9.27;-0.38;-0.19;0.88;-0.19;-5.67;-2.31;3.36
614;-4.33;-9.34;-0.45;-0.19;0.88;-0.19;-6.30;-3.43;3.71
623;-4.37;-9.35;-0.48;-0.19;0.86;-0.19;-7.21;-4.48;4.48
632;-4.46;-9.34;-0.41;-0.19;0.86;-0.19;-7.98;-4.83;5.53
641;-4.34;-9.27;-0.41;-0.19;0.86;-0.19;-8.26;-6.09;6.23
649;-4.41;-9.14;-0.27;-0.19;0.88;-0.20;-7.63;-6.30;6.79
658;-4.38;-9.12;-0.22;-0.19;0.88;-0.20;-7.91;-5.81;7.70
667;-4.24;-9.12;-0.38;-0.19;0.88;-0.20;-7.42;-5.39;8.82
676;-4.11;-9.02;-0.19;-0.19;0.88;-0.19;-6.51;-5.39;9.10
685;-4.11;-8.93;-0.17;-0.19;0.88;-0.19;-6.72;-4.83;9.38
693;-4.15;-8.87;0.01;-0.19;0.88;-0.19;-6.51;-4.06;9.31
702;-4.13;-8.87;1.82;-0.18;0.88;-0.19;-6.86;-2.80;8.47
711;-4.18;-8.82;0.02;-0.18;0.88;-0.19;-5.46;-2.24;8.89
720;-4.13;-8.74;-0.02;-0.18;0.88;-0.19;-2.45;-2.17;8.47
729;-4.25;-8.71;-0.10;-0.18;0.88;-0.19;-0.21;-2.10;7.35
738;-4.21;-8.82;-0.12;-0.18;0.88;-0.19;0.07;-2.24;6.16
746;-4.34;-9.02;-0.17;-0.17;0.88;-0.19;-1.82;-1.96;4.48
755;-4.31;-9.14;-0.21;-0.17;0.88;-0.19;-4.34;-2.17;3.08
764;-4.15;-9.37;0.01;-0.17;0.88;-0.19;-6.79;-1.68;3.08
773;-4.18;-9.43;0.05;-0.18;0.89;-0.20;-6.51;-0.21;5.60
781;-4.20;-9.38;0.17;-0.18;0.89;-0.20;-5.04;0.84;7.07
790;-4.14;-9.23;0.20;-0.18;0.89;-0.20;-3.57;1.54;7.91
799;-4.24;-10.95;0.01;-0.18;0.89;-0.20;-0.49;1.26;8.61
808;-4.18;-9.03;0.04;-0.18;0.89;-0.20;2.24;0.28;7.98
817;-4.10;-8.94;0.01;-0.18;0.89;-0.20;3.36;-0.14;6.65
825;-4.14;-9.02;-0.17;-0.18;0.88;-0.19;1.47;0.14;5.25
834;-4.44;-8.77;-0.03;-0.18;0.88;-0.19;-0.98;0.21;1.68
843;-4.04;-9.13;-0.13;-0.18;0.88;-0.19;-2.24;1.75;3.01
852;-4.25;-8.97;0.01;-0.19;0.88;-0.21;-4.62;-0.21;0.35
861;-3.91;-9.20;-0.01;-0.19;0.88;-0.21;-5.39;-0.14;1.61
870;-4.02;-9.30;0.01;-0.19;0.88;-0.21;-7.07;-0.56;0.63
878;-4.05;-9.58;0.06;-0.17;0.88;-0.21;-7.07;0.77;1.19
887;-4.25;-9.49;0.27;-0.17;0.88;-0.21;-7.28;2.03;2.80
896;-4.19;-9.61;0.24;-0.17;0.88;-0.21;-4.41;3.08;5.18
905;-4.34;-9.50;0.27;-0.18;0.88;-0.21;-0.28;4.20;8.26
914;-4.31;-9.41;0.07;-0.18;0.88;-0.21;4.34;2.94;9.24
922;-4.29;-9.28;0.02;-0.18;0.88;-0.21;6.16;1.61;10.08
931;-4.25;-9.10;-0.02;-0.18;0.88;-0.21;5.88;1.68;9.66
940;-4.10;-9.17;-0.03;-0.18;0.88;-0.21;3.78;3.43;8.68
949;-4.29;-9.11;-0.16;-0.18;0.88;-0.21;1.82;4.20;7.98
957;-4.30;-9.08;-0.17;-0.17;0.88;-0.20;1.05;3.78;7.56
966;-4.20;-9.28;-0.27;-0.17;0.88;-0.20;1.33;2.52;7.14
975;-4.31;-9.34;-0.35;-0.17;0.88;-0.20;0.84;0.21;6.23
984;-4.27;-9.20;-0.24;-0.17;0.88;-0.20;0.21;-2.10;6.30
993;-4.34;-9.17;-0.14;-0.17;0.88;-0.20;0.42;-1.89;5.53
1001;-4.07;-9.20;0.03;-0.17;0.88;-0.20;-0.63;0.07;6.30
1010;-4.11;-9.20;0.11;-0.18;0.89;-0.19;-1.05;4.06;6.44
1019;-4.13;-9.25;0.04;-0.18;0.89;-0.19;-0.42;6.44;6.65
1028;-4.21;-9.32;-0.01;-0.17;0.88;-0.20;1.96;7.42;7.07
1037;-4.39;-9.35;-0.17;-0.17;0.88;-0.20;3.43;6.65;7.28
1045;-4.32;-9.40;-0.47;-0.17;0.88;-0.20;3.36;5.60;7.35
1054;-4.31;-9.22;-0.57;-0.16;0.88;-0.20;1.47;3.36;7.42
1063;-4.21;-9.25;-0.59;-0.16;0.88;-0.20;-1.96;1.68;5.53
1072;-4.11;-9.25;-0.48;-0.16;0.88;-0.20;-4.90;0.21;3.85
1080;-3.98;-9.28;-0.45;-0.17;0.88;-0.19;-6.51;-1.89;3.08
1089;-3.86;-9.39;-0.41;-0.17;0.88;-0.19;-5.04;-3.43;2.38
1098;-3.99;-9.44;-0.17;-0.17;0.88;-0.19;-3.01;-3.57;2.38
1107;-4.13;-9.60;-0.09;-0.17;0.88;-0.21;-1.40;0.00;4.55
1116;-4.15;-9.71;-0.27;-0.17;0.88;-0.21;-0.91;4.48;7.70
1124;-4.18;-9.43;-0.56;-0.17;0.88;-0.21;-0.49;4.90;9.94
1133;-4.02;-9.25;-0.56;-0.16;0.89;-0.20;0.21;2.38;10.36
1142;-3.98;-9.03;-0.50;-0.16;0.89;-0.20;1.05;0.00;9.03
1151;-3.81;-8.99;-0.32;-0.16;0.89;-0.20;0.63;-1.47;6.65
1160;-3.90;-9.04;-0.24;-0.17;0.89;-0.20;-1.96;-0.42;4.83
1169;-3.86;-9.14;-0.18;-0.17;0.89;-0.20;-5.11;2.17;3.22
1178;-3.98;-9.36;-0.17;-0.17;0.89;-0.20;-8.19;3.50;1.05
1186;-3.71;-9.44;-0.34;-0.17;0.89;-0.20;-10.43;4.06;1.05
1195;-3.55;-9.40;-0.18;-0.17;0.89;-0.20;-11.06;2.80;0.35
1204;-3.37;-9.54;0.01;-0.17;0.89;-0.20;-10.92;0.42;-1.12
1213;-3.26;-9.66;0.15;-0.17;0.90;-0.21;-10.99;-0.70;-1.40
1222;-3.08;-9.54;0.44;-0.17;0.90;-0.21;-10.36;-0.14;-1.33
1230;-3.21;-9.47;0.52;-0.17;0.90;-0.21;-10.92;2.94;-2.73
1239;-3.25;-9.28;0.39;-0.17;0.89;-0.20;-10.50;6.09;-4.13
1248;-3.39;-9.32;0.25;-0.17;0.89;-0.20;-8.47;8.61;-4.48
1257;-3.50;-9.26;0.06;-0.17;0.89;-0.20;-4.97;8.96;-4.62
1266;-3.60;-9.21;-0.17;-0.17;0.88;-0.20;-3.01;8.54;-5.25
1275;-3.69;-9.32;-0.29;-0.17;0.88;-0.20;-3.64;9.03;-6.02
1283;-3.96;-9.34;-0.38;-0.17;0.88;-0.20;-5.53;10.36;-5.25
1292;-3.99;-9.44;-0.50;-0.17;0.88;-0.21;-7.77;9.59;-5.11
1301;-4.07;-9.60;-0.54;-0.17;0.88;-0.21;-8.54;7.49;-4.90
1310;-4.03;-9.87;-0.41;-0.17;0.88;-0.21;-9.24;2.94;-3.71
1319;-4.03;-9.74;-0.25;-0.18;0.88;-0.21;-9.80;-1.12;-2.31
1327;-4.01;-9.53;0.05;-0.18;0.88;-0.21;-10.71;-4.13;-0.84
1336;-3.99;-9.27;0.47;-0.17;0.87;-0.20;-11.13;-4.41;-0.77
1345;-4.04;-9.14;0.75;-0.17;0.87;-0.20;-9.45;-2.31;-1.40
1354;-4.22;-9.04;0.83;-0.17;0.87;-0.20;-8.68;1.82;-1.40
1363;-4.24;-8.93;0.83;-0.17;0.88;-0.20;-5.60;4.76;-0.35
1372;-4.30;-9.00;0.75;-0.17;0.88;-0.20;-2.59;7.21;-0.21
1380;-4.39;-9.01;0.63;-0.17;0.88;-0.20;-1.54;7.98;-0.77
1389;-4.24;-8.97;0.44;-0.17;0.88;-0.22;-1.61;8.61;-0.35
1398;-4.13;-9.04;0.22;-0.17;0.88;-0.22;-2.52;9.38;-0.14
1407;-4.26;-9.04;0.30;-0.17;0.88;-0.22;-2.94;8.26;-0.63
1416;-4.32;-9.12;0.26;-0.17;0.88;-0.20;-2.59;7.07;0.98
1424;-4.45;-9.21;0.27;-0.17;0.88;-0.20;0.77;5.67;2.52
1433;-4.44;-9.06;0.19;-0.17;0.88;-0.20;4.48;4.06;4.20
1442;-4.53;-9.22;0.10;-0.16;0.88;-0.21;5.46;3.01;5.18
1451;-4.38;-9.17;0.15;-0.16;0.88;-0.21;4.76;3.78;5.74
1460;-4.48;-9.27;0.34;-0.16;0.88;-0.21;3.64;4.83;6.16
1468;-4.28;-9.27;0.28;-0.17;0.88;-0.22;2.24;6.30;6.58
1477;-4.35;-9.16;0.44;-0.17;0.88;-0.22;2.73;6.93;7.35
1486;-4.04;-9.21;0.60;-0.17;0.88;-0.22;4.34;7.84;8.12
1495;-4.05;-7.39;0.57;-0.16;0.88;-0.22;6.44;9.38;8.40
1504;-4.08;-9.04;0.42;-0.16;0.88;-0.22;7.91;11.06;8.96
1513;-3.94;-9.09;0.12;-0.16;0.88;-0.22;7.63;10.64;9.24
1521;-3.77;-9.10;0.04;-0.15;0.88;-0.21;6.65;7.70;9.45
1530;-3.65;-9.18;0.18;-0.15;0.88;-0.21;6.16;4.48;9.38
1539;-3.52;-9.17;0.17;-0.15;0.88;-0.21;6.51;1.33;8.05
1548;-3.48;-9.25;0.19;-0.15;0.88;-0.21;6.44;0.70;6.72
1557;-3.42;-9.11;0.30;-0.15;0.88;-0.21;6.58;1.26;5.53
1565;-3.43;-8.98;0.17;-0.15;0.88;-0.21;7.07;2.66;3.99
1574;-3.58;-9.05;0.02;-0.16;0.88;-0.20;5.46;3.85;0.98
1583;-3.77;-9.09;-0.07;-0.16;0.88;-0.20;3.85;5.39;-1.54
1592;-4.06;-9.10;-0.34;-0.16;0.88;-0.21;0.91;6.09;-4.41
1600;-4.03;-9.27;-0.45;-0.16;0.88;-0.21;-3.85;5.32;-6.65
1609;-4.34;-9.73;-0.34;-0.16;0.88;-0.21;-8.61;8.26;-7.63
1618;-4.34;-9.91;-0.19;-0.16;0.88;-0.21;-10.78;10.85;-5.32
1627;-4.29;-9.97;-0.19;-0.16;0.88;-0.21;-10.36;11.41;-4.69
1636;-4.36;-10.11;-0.09;-0.16;0.88;-0.21;-8.40;9.80;-3.64
1645;-4.29;-10.09;0.02;-0.16;0.88;-0.21;-6.79;7.49;-2.10
1653;-4.17;-9.88;0.06;-0.16;0.88;-0.21;-6.16;5.46;-0.42
1662;-4.19;-9.71;0.02;-0.16;0.88;-0.21;-5.67;3.71;0.28
1671;-4.12;-9.55;-1.78;-0.17;0.88;-0.22;-5.46;3.64;0.21
1680;-4.29;-9.34;-0.04;-0.17;0.88;-0.22;-4.90;3.50;-0.56
1688;-4.22;-9.32;-0.01;-0.17;0.88;-0.22;-5.32;3.99;-2.03
1697;-4.23;-9.16;0.15;-0.15;0.88;-0.21;-7.35;7.56;-2.94
1706;-4.23;-9.38;0.01;-0.15;0.88;-0.21;-9.38;9.94;-3.43
1715;-4.26;-9.40;-0.04;-0.15;0.88;-0.21;-10.22;11.48;-3.92
1724;-4.39;-9.44;-0.01;-0.16;0.87;-0.22;-10.01;12.32;-4.48
1732;-4.36;-9.56;-0.10;-0.16;0.87;-0.22;-10.01;10.64;-3.78
1741;-4.47;-9.55;0.03;-0.16;0.87;-0.22;-10.36;9.94;-2.59
1750;-4.51;-9.54;0.00;-0.16;0.87;-0.22;-9.24;9.24;-0.70
1759;-4.61;-9.35;-0.04;-0.16;0.87;-0.22;-6.51;7.49;0.56
1768;-4.64;-9.36;-0.13;-0.16;0.87;-0.22;-4.06;5.46;1.33
1777;-4.56;-9.27;-0.17;-0.16;0.87;-0.22;-3.01;2.52;1.75
1785;-4.54;-9.29;0.08;-0.16;0.87;-0.22;-6.51;-0.77;1.33
1794;-4.50;-9.31;0.57;-0.16;0.87;-0.22;-10.78;-1.54;0.07
1803;-4.31;-9.45;0.84;-0.16;0.87;-0.22;-14.84;0.42;-0.98
1812;-4.31;-9.47;1.23;-0.16;0.87;-0.22;-16.17;3.78;-0.98
1821;-4.24;-9.55;1.52;-0.16;0.87;-0.22;-15.89;5.95;0.42
1830;-4.21;-9.46;1.68;-0.15;0.87;-0.22;-11.76;8.68;1.75
1838;-4.14;-9.35;1.37;-0.15;0.87;-0.22;-8.33;13.09;2.45
1847;-4.07;-9.32;1.23;-0.15;0.87;-0.22;-5.81;14.77;3.15
1856;-4.16;-9.32;0.92;-0.15;0.86;-0.22;-3.92;13.72;3.78
1865;-4.18;-9.33;0.73;-0.15;0.86;-0.22;-1.96;10.85;5.18
1874;-4.19;-9.34;0.64;-0.15;0.86;-0.22;-0.35;8.54;6.09
1883;-4.08;-9.29;0.57;-0.15;0.87;-0.23;0.42;7.56;6.58
1891;-3.82;-9.14;0.50;-0.15;0.87;-0.23;-0.84;5.04;5.18
1900;-3.76;-9.26;0.39;-0.15;0.87;-0.22;-3.99;4.48;3.36
1909;-3.80;-9.25;0.43;-0.15;0.87;-0.22;-6.02;4.97;1.75
1918;-3.83;-9.27;0.30;-0.15;0.87;-0.22;-9.52;1.75;-0.70
1927;-3.80;-9.37;0.55;-0.15;0.87;-0.22;-12.74;-2.59;-0.91
1936;-3.91;-9.29;0.62;-0.15;0.87;-0.22;-11.34;-4.97;-0.21
1944;-3.88;-9.17;0.82;-0.15;0.87;-0.22;-9.59;-7.00;0.28
1953;-3.81;-9.22;0.84;-0.15;0.86;-0.23;-7.00;-7.14;2.10
1962;-3.81;-9.26;0.72;-0.15;0.86;-0.23;-3.78;-5.95;4.69
1971;-1.93;-9.12;0.69;-0.15;0.86;-0.23;-1.54;-3.57;6.86
1980;-3.65;-9.03;0.43;-0.14;0.87;-0.23;0.28;-2.24;8.40
1988;-3.61;-8.92;0.37;-0.14;0.87;-0.23;1.75;-1.26;9.38
1997;-3.56;-8.79;0.18;-0.14;0.87;-0.23;1.89;-2.59;8.12
2006;-3.58;-8.66;0.24;-0.15;0.88;-0.22;-0.28;-3.99;6.30
2015;-3.57;-8.75;0.33;-0.15;0.88;-0.22;-2.94;-4.62;4.48
2024;-3.76;-8.93;0.31;-0.15;0.88;-0.22;-4.27;-5.18;3.22
2033;-3.76;-8.94;0.32;-0.15;0.86;-0.23;-4.27;-6.23;1.19
2041;-3.83;-8.99;0.29;-0.15;0.86;-0.23;-5.67;-7.84;0.35
2050;-3.86;-8.99;0.57;-0.15;0.86;-0.23;-6.09;-8.12;1.33
2059;-4.01;-8.83;0.65;-0.14;0.86;-0.23;-5.67;-8.05;1.75
2068;-3.87;-8.89;0.85;-0.14;0.86;-0.23;-5.04;-7.49;2.66
2077;-3.79;-8.87;0.95;-0.14;0.86;-0.23;-3.22;-6.65;4.13
2085;-3.81;-8.87;0.98;-0.15;0.86;-0.23;-1.89;-4.69;4.27
2094;-3.96;-8.66;0.91;-0.15;0.86;-0.23;-3.71;-4.41;3.36
2103;-3.94;-8.68;0.90;-0.15;0.86;-0.23;-6.65;-6.02;2.52
2112;-3.93;-8.74;0.95;-0.14;0.87;-0.22;-6.93;-6.79;2.45
2121;-3.98;-8.59;1.02;-0.14;0.87;-0.22;-5.04;-7.77;0.49
2130;-4.03;-8.69;1.23;-0.14;0.87;-0.22;-3.99;-8.47;-1.54
2138;-3.90;-8.74;1.07;-0.15;0.86;-0.22;-2.87;-7.70;-2.38
2147;-4.03;-8.64;0.90;-0.15;0.86;-0.22;-1.75;-7.21;-4.34
2156;-4.08;-8.77;0.97;-0.15;0.86;-0.22;-4.34;-6.86;-5.53
2165;-3.98;-8.90;0.84;-0.15;0.87;-0.23;-5.67;-4.34;-5.18
2174;-4.16;-9.05;0.64;-0.15;0.87;-0.23;-4.20;-0.77;-5.32
2182;-4.26;-9.02;0.52;-0.15;0.86;-0.24;-4.13;0.77;-5.46
2191;-4.33;-9.10;0.17;-0.15;0.86;-0.24;-2.80;-0.63;-4.83
2200;-4.26;-9.10;0.04;-0.15;0.86;-0.24;-2.38;-3.36;-4.90
2209;-4.26;-8.95;0.33;-0.15;0.86;-0.23;-4.90;-7.84;-5.53
2218;-4.26;-9.05;0.63;-0.15;0.86;-0.23;-6.16;-11.41;-6.23
2227;-4.20;-9.05;0.78;-0.15;0.86;-0.23;-5.81;-11.48;-7.14
2236;-4.31;-9.23;1.04;-0.16;0.86;-0.23;-5.18;-9.45;-7.07
2244;-4.17;-9.42;1.15;-0.16;0.86;-0.23;-3.22;-5.18;-5.32
2253;-4.26;-9.34;0.98;-0.16;0.86;-0.23;1.33;-2.03;-2.87
2262;-4.26;-9.02;0.85;-0.16;0.87;-0.23;4.69;-0.14;-1.68
2271;-4.20;-9.00;0.68;-0.16;0.87;-0.23;8.33;-0.14;-2.66
2279;-4.00;-9.02;0.50;-0.16;0.87;-0.23;7.42;2.03;-3.43
2288;-4.07;-9.14;0.05;-0.15;0.85;-0.22;4.06;4.69;-5.32
2297;-4.26;-9.14;0.01;-0.15;0.85;-0.22;0.28;4.48;-6.44
2306;-4.31;-9.28;0.03;-0.15;0.85;-0.22;-3.71;0.70;-7.63
2315;-4.39;-9.44;0.37;-0.16;0.86;-0.23;-6.58;-3.64;-7.70
2324;-4.27;-9.55;0.78;-0.16;0.86;-0.23;-8.40;-5.18;-7.00
2332;-4.24;-9.55;1.05;-0.16;0.86;-0.23;-9.24;-4.69;-5.88
2341;-4.27;-9.55;1.14;-0.16;0.87;-0.22;-7.98;-3.15;-5.88
2350;-4.29;-9.67;1.14;-0.16;0.87;-0.22;-7.49;-0.49;-5.04
2359;-4.21;-9.81;0.83;-0.16;0.87;-0.22;-5.81;2.52;-3.99
2368;-4.39;-9.90;0.49;-0.17;0.86;-0.24;-2.52;3.71;-2.17
2376;-4.38;-9.71;0.16;-0.17;0.86;-0.24;0.07;1.54;0.00
2385;-4.25;-9.50;0.26;-0.17;0.86;-0.24;0.70;-2.94;0.91
2394;-4.23;-9.35;0.66;-0.16;0.86;-0.23;-1.47;-4.69;-0.14
2403;-4.24;-9.44;0.75;-0.16;0.86;-0.23;-3.50;-3.36;-0.42
2412;-4.24;-9.40;0.90;-0.16;0.86;-0.23;-3.92;-2.24;-0.49
2420;-4.24;-9.46;0.82;-0.17;0.85;-0.23;-2.80;-1.68;-1.33
2429;-4.39;-9.58;0.60;-0.17;0.85;-0.23;-2.59;-1.89;0.35
2438;-4.49;-9.50;0.80;-0.17;0.85;-0.23;-2.38;-3.64;2.24
2447;-4.29;-9.53;0.93;-0.17;0.86;-0.23;-1.68;-4.55;3.15
2456;-4.26;-9.38;0.95;-0.17;0.86;-0.23;0.21;-3.57;3.92
2465;-4.31;-9.39;0.80;-0.16;0.86;-0.23;0.28;-1.96;4.20
2473;-4.29;-9.33;0.62;-0.16;0.86;-0.23;0.28;-1.12;4.62
2482;-4.36;-9.38;0.53;-0.16;0.86;-0.23;17.78;-1.26;4.83
2491;-4.23;-9.42;0.33;-0.16;0.86;-0.24;-0.77;-2.24;5.11
2500;-4.32;-9.22;0.16;-0.16;0.86;-0.24;-1.96;-4.41;4.90
2509;-4.32;-9.12;0.52;-0.16;0.86;-0.24;-4.20;-6.37;3.92
2517;-4.13;-9.04;0.95;-0.15;0.86;-0.22;-5.53;-7.00;3.15
2526;-4.13;-9.04;1.23;-0.15;0.86;-0.22;-5.04;-5.81;3.01
2535;-4.27;-9.07;1.62;-0.15;0.86;-0.22;-3.99;-3.85;3.64
2544;-4.06;-9.20;1.52;-0.15;0.86;-0.24;-1.47;-1.26;4.62
2553;-3.96;-9.05;1.20;-0.15;0.86;-0.24;2.38;1.12;5.60
2561;-4.11;-8.98;0.88;-0.15;0.86;-0.24;3.64;1.54;5.60
2570;-4.07;-9.09;0.60;-0.15;0.87;-0.24;2.66;2.24;4.90
2579;-4.06;-9.15;0.32;-0.15;0.87;-0.24;1.19;2.73;4.69
2588;-4.13;-9.14;0.11;-0.15;0.87;-0.24;-0.63;1.19;3.85
2597;-4.20;-9.17;0.01;-0.16;0.86;-0.23;-2.94;-2.10;2.94
2605;-4.24;-9.22;0.23;-0.16;0.86;-0.23;-3.92;-4.69;3.15
2614;-4.30;-9.11;0.53;-0.16;0.86;-0.23;-4.27;-6.58;3.57
2623;-4.19;-9.07;0.92;-0.16;0.86;-0.23;-3.64;-7.56;4.06
2632;-4.24;-9.05;1.17;-0.16;0.86;-0.23;-2.94;-7.14;4.13
2641;-4.17;-9.15;1.32;-0.16;0.86;-0.23;-3.15;-5.18;4.27
2649;-4.21;-9.11;1.45;-0.15;0.86;-0.24;-2.80;-3.78;3.71
2658;-4.21;-9.12;1.21;-0.15;0.86;-0.24;-1.54;-2.17;4.20
2667;-4.26;-9.08;1.07;-0.15;0.86;-0.24;0.91;-0.49;5.25
2676;-4.42;-9.07;0.63;-0.16;0.86;-0.24;2.59;1.61;5.95
2685;-4.34;-9.22;0.32;-0.16;0.86;-0.24;3.08;1.82;6.79
2694;-4.40;-9.17;-0.19;-0.16;0.86;-0.24;2.94;0.77;8.05
2702;-4.50;-11.00;-0.61;-0.16;0.87;-0.23;1.68;-3.78;8.05
2711;-4.31;-9.10;-0.51;-0.16;0.87;-0.23;-0.21;-9.45;7.56
2720;-4.23;-9.03;-0.04;-0.16;0.87;-0.23;-4.06;-15.19;6.37
2729;-3.94;-8.98;0.60;-0.16;0.87;-0.24;-7.70;-17.15;5.32
2738;-3.93;-9.01;1.09;-0.16;0.87;-0.24;-7.70;-14.42;3.78
2747;-3.93;-9.20;1.13;-0.15;0.85;-0.23;-6.51;-8.89;3.29
2755;-3.98;-9.20;0.92;-0.15;0.85;-0.23;-5.04;-5.11;4.06
2764;-3.97;-9.27;0.80;-0.15;0.85;-0.23;-2.59;-3.71;5.39
2773;-4.07;-9.38;0.45;-0.15;0.86;-0.23;-0.28;-3.85;7.00
2782;-4.15;-9.31;0.09;-0.15;0.86;-0.23;0.56;-5.11;7.84
2791;-4.06;-9.32;-0.06;-0.15;0.86;-0.23;-1.12;-7.14;7.98
2799;-4.13;-9.36;-0.16;-0.15;0.85;-0.23;-2.10;-9.73;8.47
2808;-4.29;-9.25;-0.14;-0.15;0.85;-0.23;-3.71;-14.56;8.40
2817;-4.24;-9.26;0.18;-0.15;0.85;-0.23;-6.51;-20.37;7.84
2826;-4.08;-9.27;0.62;-0.16;0.87;-0.24;-7.63;-23.52;7.14
2835;-3.89;-9.17;1.11;-0.16;0.87;-0.24;-7.56;-21.84;6.65
2844;-3.71;-9.22;1.48;-0.16;0.87;-0.24;-7.77;-17.15;5.60
2852;-3.80;-9.28;1.36;-0.15;0.85;-0.22;-8.47;-9.87;5.11
2861;-3.85;-9.41;1.44;-0.15;0.85;-0.22;-9.31;-4.55;5.32
2870;-4.00;-9.32;1.11;-0.15;0.85;-0.22;-6.72;-1.61;5.95
2879;-4.10;-9.50;0.86;-0.16;0.86;-0.24;-3.15;-2.73;7.98
2888;-4.09;-9.39;0.57;-0.16;0.86;-0.24;1.54;-6.93;11.06
2897;-4.07;-9.25;0.27;-0.16;0.86;-0.24;7.77;-10.36;12.60
2905;-3.93;-8.99;0.35;-0.15;0.85;-0.24;8.12;-16.31;11.69
2914;-3.88;-8.71;0.50;-0.15;0.85;-0.24;2.45;-21.98;8.75
2923;-3.66;-8.66;1.13;-0.15;0.85;-0.24;-3.22;-20.79;5.25
2932;-3.57;-8.75;1.48;-0.16;0.87;-0.23;-8.40;-13.30;1.61
2941;-3.55;-8.79;1.77;-0.16;0.87;-0.23;-10.92;-4.20;-1.61
2950;-3.79;-8.99;1.59;-0.16;0.87;-0.23;-10.92;5.67;-3.85
2958;-4.03;-9.05;1.18;-0.16;0.86;-0.24;-8.89;9.31;-3.57
2967;-4.14;-9.34;0.69;-0.16;0.86;-0.24;-5.74;8.82;-1.96
2976;-4.29;-9.23;0.39;-0.16;0.86;-0.24;-1.75;4.13;2.17
2985;-4.28;-9.45;0.42;-0.17;0.86;-0.23;-1.26;-3.50;4.90
2994;-4.16;-9.32;0.70;-0.17;0.86;-0.23;0.42;-7.91;6.02
3002;-4.11;-9.46;0.93;-0.17;0.86;-0.23;0.21;-8.61;5.74
3011;-4.13;-9.50;1.07;-0.16;0.87;-0.24;-1.61;-7.14;5.11
3020;-4.11;-9.42;1.11;-0.16;0.87;-0.24;-3.29;-5.81;4.76
3029;-3.91;-9.35;1.04;-0.15;0.87;-0.23;-3.08;-5.60;5.18
3038;-4.06;-9.24;1.13;-0.15;0.87;-0.23;0.28;-4.55;5.67
3047;-4.01;-9.10;1.06;-0.15;0.87;-0.23;3.64;-2.45;5.46
3055;-4.06;-9.06;0.92;-0.16;0.86;-0.23;5.04;0.49;4.20
3064;-4.05;-9.15;0.69;-0.16;0.86;-0.23;4.62;4.97;2.80
3073;-4.13;-9.26;0.34;-0.16;0.86;-0.23;3.92;5.81;3.01
3082;-4.30;-9.40;0.10;-0.15;0.86;-0.22;2.31;1.96;4.20
3091;-4.23;-9.30;-0.03;-0.15;0.86;-0.22;2.94;-4.83;4.83
3100;-4.19;-9.27;0.11;-0.15;0.86;-0.22;1.75;-13.23;4.62
3109;-4.13;-9.20;0.43;-0.16;0.87;-0.23;0.42;-20.72;4.83
3117;-3.90;-9.01;0.76;-0.16;0.87;-0.23;-2.10;-22.12;4.55
3126;-3.81;-8.92;1.23;-0.16;0.87;-0.23;-3.64;-18.83;4.06
3135;-3.69;-9.02;1.54;-0.17;0.87;-0.23;-2.80;-11.20;3.50
3144;-3.59;-8.98;1.46;-0.17;0.87;-0.23;0.56;-3.92;3.57
3153;-3.54;-8.99;1.26;-0.17;0.87;-0.23;6.79;0.56;4.27
3161;-3.63;-9.02;0.95;-0.16;0.87;-0.23;13.44;1.26;3.43
3170;-3.46;-9.00;0.55;-0.16;0.87;-0.23;16.66;-1.12;2.03
3179;-3.47;-8.98;0.26;-0.16;0.87;-0.23;14.98;-2.87;0.84
3188;-3.47;-9.02;0.18;-0.16;0.87;-0.24;9.80;-3.78;-1.96
3197;-3.48;-9.05;0.32;-0.16;0.87;-0.24;1.26;-4.48;-5.11
3205;-3.55;-9.20;0.44;-0.16;0.87;-0.24;-7.91;-3.99;-6.30
3214;-3.75;-9.30;0.67;-0.16;0.88;-0.22;-12.95;-1.89;-6.65
3223;-3.83;-9.61;0.93;-0.16;0.88;-0.22;-13.44;2.17;-5.67
3232;-4.00;-9.68;1.05;-0.16;0.88;-0.22;-10.57;5.67;-4.83
3241;-3.93;-9.78;0.99;-0.15;0.88;-0.24;-4.48;6.37;-2.87
3249;-4.12;-9.81;0.85;-0.15;0.88;-0.24;0.98;3.50;-1.40
3258;-3.96;-9.74;0.88;-0.15;0.88;-0.24;6.30;0.21;0.00
3267;-3.90;-9.58;0.74;-0.16;0.87;-0.23;9.94;-1.89;0.77
3276;-3.91;-9.37;0.57;-0.16;0.87;-0.23;12.32;-2.73;0.21
3285;-3.68;-9.24;0.35;-0.16;0.87;-0.23;12.04;-2.45;-1.05
3293;-3.71;-9.27;0.16;-0.17;0.87;-0.23;9.80;-1.82;-2.24
3302;-3.61;-9.17;0.21;-0.17;0.87;-0.23;4.97;-1.82;-3.64
3311;-3.60;-9.14;0.29;-0.16;0.87;-0.24;0.56;-2.03;-5.18
3320;-3.71;-9.22;0.54;-0.16;0.87;-0.24;-2.87;-2.52;-5.32
3329;-3.56;-9.22;0.57;-0.16;0.87;-0.24;-5.46;-0.70;-3.99
3337;-4.02;-9.25;1.06;-0.16;0.85;-0.23;-4.62;0.14;-2.59
3346;-3.93;-9.41;1.00;-0.16;0.85;-0.23;-1.12;2.66;-1.12
3355;-3.98;-9.31;1.04;-0.16;0.85;-0.23;1.61;4.34;-0.56
3364;-3.94;-9.34;1.03;-0.17;0.86;-0.22;2.17;6.09;0.56
3373;-4.03;-9.30;0.89;-0.17;0.86;-0.22;2.03;6.72;1.26
3381;-3.98;-9.25;0.97;-0.17;0.86;-0.22;2.87;4.69;1.40
3390;-4.11;-9.24;0.80;-0.16;0.87;-0.22;6.02;1.96;1.33
3399;-4.03;-9.11;0.75;-0.16;0.87;-0.22;9.59;-0.49;1.47
3408;-3.84;-9.14;0.72;-0.16;0.87;-0.22;12.18;-1.19;1.40
3416;-3.86;-9.01;0.67;-0.16;0.87;-0.22;12.95;0.00;1.19
3425;-3.88;-9.03;0.67;-0.16;0.87;-0.22;11.48;2.24;0.07
3434;-3.90;-9.04;0.50;-0.16;0.87;-0.22;8.68;5.53;-1.47
3443;-4.01;-9.26;0.37;-0.15;0.88;-0.23;6.79;10.01;-2.24
3452;-4.19;-9.62;0.37;-0.15;0.88;-0.23;5.67;13.23;-1.19
3460;-4.28;-9.83;0.34;-0.15;0.88;-0.23;7.63;12.81;0.56
3469;-4.20;-10.01;0.26;-0.17;0.88;-0.23;11.27;10.78;3.78
3478;-4.35;-9.99;0.25;-0.17;0.88;-0.23;15.61;9.38;7.42
3487;-4.30;-9.82;0.28;-0.17;0.88;-0.23;18.27;6.02;9.38
3496;-4.15;-9.72;0.19;-0.16;0.89;-0.21;18.90;4.90;10.22
3504;-3.90;-9.44;0.14;-0.16;0.89;-0.21;16.66;3.15;9.38
3513;-3.65;-9.40;0.17;-0.16;0.89;-0.21;12.25;4.34;7.14
3522;-3.68;-9.22;0.13;-0.16;0.87;-0.22;5.74;7.70;5.25
3531;-3.60;-9.42;0.22;-0.16;0.87;-0.22;-1.26;10.43;3.08
3539;-3.67;-9.60;0.15;-0.16;0.87;-0.22;-3.22;12.04;2.38
3548;-3.68;-9.58;0.50;-0.15;0.88;-0.22;-0.28;11.83;3.22
3557;-3.91;-9.74;0.46;-0.15;0.88;-0.22;5.88;12.60;5.18
3566;-3.72;-9.70;0.22;-0.15;0.88;-0.22;10.08;10.08;5.67
3575;-3.73;-9.40;0.06;-0.15;0.88;-0.22;12.67;9.38;6.86
3584;-3.59;-9.38;0.04;-0.15;0.88;-0.22;11.55;5.67;5.67
3592;-3.42;-9.13;0.06;-0.15;0.88;-0.22;9.24;2.87;4.06
3601;-3.35;-9.04;0.22;-0.15;0.88;-0.23;6.79;0.98;2.31
3610;-3.32;-9.01;0.34;-0.15;0.88;-0.23;4.34;-1.05;-0.49
3619;-3.25;-9.03;0.55;-0.15;0.88;-0.22;3.36;-1.47;-2.38
3628;-3.16;-9.10;0.60;-0.15;0.88;-0.22;2.59;0.00;-4.06
3637;-3.12;-9.20;0.64;-0.15;0.88;-0.22;1.47;5.46;-4.13
3645;-3.41;-9.53;0.77;-0.15;0.89;-0.22;0.98;9.87;-4.97
3654;-3.29;-9.58;0.60;-0.15;0.89;-0.22;-0.14;14.28;-4.06
3663;-3.39;-9.68;0.63;-0.15;0.89;-0.22;1.12;14.49;-3.71
3672;-3.35;-9.74;0.37;-0.15;0.87;-0.21;5.39;12.39;-3.36
3681;-3.50;-9.83;0.38;-0.15;0.87;-0.21;9.38;8.96;-2.45
3689;-3.50;-9.77;0.16;-0.15;0.87;-0.21;13.37;4.20;-2.38
3698;-3.54;-9.83;0.04;-0.14;0.89;-0.22;14.49;0.70;-3.57
3707;-3.48;-9.68;0.00;-0.14;0.89;-0.22;11.27;-0.21;-3.78
3716;-3.43;-9.65;0.07;-0.14;0.89;-0.22;5.95;0.84;-3.78
3725;-3.31;-9.66;-0.01;-0.15;0.88;-0.23;1.12;1.89;-3.85
3733;-3.56;-9.42;0.13;-0.15;0.88;-0.23;-2.24;2.87;-4.20
3742;-3.50;-9.44;0.15;-0.15;0.88;-0.23;-4.27;3.36;-4.69
3751;-3.51;-9.55;0.20;-0.14;0.88;-0.21;-5.46;4.41;-4.27
3760;-3.43;-9.50;0.34;-0.14;0.88;-0.21;-4.34;3.36;-3.71
3769;-3.45;-9.52;0.27;-0.14;0.88;-0.21;-2.45;1.89;-2.45
3778;-3.52;-9.48;0.56;-0.14;0.88;-0.21;-0.42;0.63;-1.82
3786;-3.46;-9.60;0.53;-0.14;0.88;-0.21;1.96;1.05;0.35
3795;-3.47;-9.30;0.47;-0.14;0.88;-0.21;4.20;-0.63;-0.56
3804;-3.41;-9.22;0.48;-0.14;0.89;-0.21;5.18;-2.52;-1.19
3813;-3.12;-9.27;0.37;-0.14;0.89;-0.21;4.69;-3.29;-2.80
3822;-3.20;-9.12;0.53;-0.14;0.89;-0.21;4.13;-3.36;-3.78
3830;-3.13;-11.02;0.55;-0.14;0.88;-0.24;1.61;-1.82;-5.04
3839;-3.15;-9.22;0.67;-0.14;0.88;-0.24;-0.63;1.12;-5.18
3848;-3.21;-9.32;0.65;-0.14;0.88;-0.24;-1.40;3.43;-5.60
3857;-3.37;-9.30;0.61;-0.14;0.88;-0.22;0.28;5.46;-5.88
3866;-3.49;-9.40;0.50;-0.14;0.88;-0.22;2.59;4.83;-5.25
3874;-3.54;-9.50;0.54;-0.14;0.88;-0.22;6.44;3.43;-4.69
3883;-3.61;-9.57;0.34;-0.14;0.88;-0.22;10.64;0.91;-2.38
3892;-3.54;-9.56;0.32;-0.14;0.88;-0.22;12.18;0.00;-0.49
3901;-3.65;-9.58;0.28;-0.15;0.88;-0.22;12.46;0.07;0.91
3910;-3.55;-9.44;0.34;-0.15;0.88;-0.22;10.22;1.54;0.77
3918;-3.60;-9.40;0.10;-0.15;0.88;-0.22;7.00;2.80;-0.07
3927;-3.50;-9.39;0.04;-0.16;0.88;-0.23;6.23;2.66;-1.40
3936;-3.52;-9.43;0.17;-0.16;0.88;-0.23;5.74;1.26;-2.24
3945;-3.50;-9.44;0.20;-0.16;0.88;-0.23;5.32;1.40;-2.38
3954;-3.46;-9.61;0.08;-0.15;0.88;-0.21;4.62;1.33;-2.31
3963;-3.51;-9.61;0.30;-0.15;0.88;-0.21;4.20;2.73;-1.40
3971;-3.59;-9.60;0.42;-0.15;0.88;-0.21;4.20;4.27;0.28
3980;-3.61;-9.63;0.29;-0.15;0.88;-0.20;5.39;5.11;0.77
3989;-3.54;-9.75;0.27;-0.15;0.88;-0.20;8.33;4.97;1.89
3998;-3.77;-9.56;0.14;-0.15;0.88;-0.20;10.08;4.20;2.59
4006;-3.75;-9.43;0.06;-0.15;0.88;-0.22;12.88;1.05;1.96
4015;-3.70;-9.30;-0.13;-0.15;0.88;-0.22;13.65;-1.68;0.70
4024;-3.68;-9.39;-0.14;-0.15;0.88;-0.22;12.81;-3.08;-0.28
4033;-3.65;-9.32;-0.12;-0.14;0.88;-0.21;8.68;-2.24;-0.56
4042;-3.68;-9.35;0.03;-0.14;0.88;-0.21;4.69;-0.70;-1.05
4051;-3.72;-9.22;-0.04;-0.14;0.88;-0.21;1.05;1.12;-2.73
4059;-3.70;-9.53;0.01;-0.15;0.89;-0.20;-1.19;3.29;-3.43
4068;-3.73;-9.64;0.03;-0.15;0.89;-0.20;-1.12;4.97;-2.80
4077;-3.90;-9.61;0.10;-0.15;0.89;-0.20;1.26;5.53;-2.10
4086;-3.96;-9.68;0.09;-0.15;0.89;-0.22;4.06;5.04;-1.05
4095;-3.97;-9.66;0.05;-0.15;0.89;-0.22;6.16;3.15;0.07
4104;-3.93;-9.63;-0.07;-0.15;0.89;-0.22;7.63;0.14;0.00
4112;-3.93;-9.74;-0.09;-0.14;0.89;-0.21;9.73;-3.15;-0.70
4121;-4.02;-9.68;-0.17;-0.14;0.89;-0.21;9.17;-3.64;-0.70
4130;-3.78;-9.68;-0.14;-0.14;0.89;-0.21;4.20;-3.57;-2.31
4139;-3.82;-9.71;-0.09;-0.15;0.88;-0.22;-2.24;-0.56;-3.78
4148;-4.15;-9.78;0.00;-0.15;0.88;-0.22;-10.50;2.73;-3.71
4157;-3.87;-9.99;0.04;-0.15;0.88;-0.22;-13.79;4.69;-3.08
4165;-3.99;-9.79;0.01;-0.15;0.89;-0.20;-12.46;4.55;-2.38
4174;-3.98;-9.79;0.24;-0.15;0.89;-0.20;-7.56;1.40;-1.54
4183;-3.98;-9.71;0.29;-0.14;0.88;-0.22;-1.68;-1.19;-0.56
4192;-3.75;-9.51;0.24;-0.14;0.88;-0.22;1.33;-2.03;0.63
4201;-3.63;-9.38;0.19;-0.14;0.88;-0.22;1.05;-2.59;-0.42
4209;-3.63;-9.36;0.09;-0.14;0.89;-0.21;0.14;-1.82;-1.47
4218;-3.56;-9.32;0.15;-0.14;0.89;-0.21;-1.54;-1.61;-2.38
4227;-3.57;-9.28;0.04;-0.14;0.89;-0.21;-2.10;-1.19;-3.50
4236;-3.55;-9.30;0.04;-0.14;0.88;-0.21;-3.92;-1.12;-3.99
4245;-3.52;-9.22;0.04;-0.14;0.88;-0.21;-5.32;-1.61;-4.34
4254;-3.57;-9.22;0.10;-0.14;0.88;-0.21;-6.44;-2.31;-4.27
4263;-3.57;-9.33;0.16;-0.15;0.88;-0.20;-6.44;-0.56;-4.13
4271;-3.57;-9.48;0.29;-0.15;0.88;-0.20;-4.48;1.75;-3.36
4280;-3.91;-9.66;0.25;-0.15;0.88;-0.20;-1.82;3.78;-2.31
4289;-3.74;-9.64;0.10;-0.15;0.88;-0.21;0.91;4.41;0.42
4297;-3.76;-9.53;0.01;-0.15;0.88;-0.21;1.89;3.85;1.75
4306;-3.72;-9.50;-0.04;-0.15;0.88;-0.21;1.54;2.66;1.68
4315;-3.78;-9.43;0.03;-0.15;0.89;-0.20;-0.07;2.03;1.96
4324;-3.97;-9.22;0.03;-0.15;0.89;-0.20;-0.63;0.91;3.08
4333;-3.93;-9.02;0.14;-0.15;0.89;-0.20;1.82;-0.84;3.22
4342;-3.83;-9.11;0.08;-0.15;0.88;-0.21;5.46;-2.24;2.87
4350;-3.84;-9.19;-0.01;-0.15;0.88;-0.21;7.91;-1.47;2.10
4359;-3.77;-9.25;1.79;-0.15;0.88;-0.21;4.76;0.35;2.10
4368;-3.78;-9.46;0.01;-0.14;0.88;-0.21;0.00;2.73;3.15
4377;-3.83;-9.43;-0.01;-0.14;0.88;-0.21;-3.01;3.50;4.34
4386;-3.87;-9.50;-0.02;-0.14;0.88;-0.21;-1.89;1.61;5.18
4394;-3.79;-9.48;0.01;-0.14;0.89;-0.20;2.24;0.00;6.09
4403;-3.62;-9.41;0.09;-0.14;0.89;-0.20;4.90;-1.05;6.16
4412;-3.49;-9.50;0.07;-0.14;0.89;-0.20;4.20;-1.47;5.88
4421;-3.40;-9.37;0.02;-0.14;0.88;-0.21;1.82;-1.33;6.37
4430;-3.35;-9.40;0.11;-0.14;0.88;-0.21;0.77;-1.40;5.18
4439;-3.17;-9.38;0.19;-0.14;0.88;-0.21;-0.14;-0.84;4.83
4447;-3.10;-9.45;0.35;-0.14;0.88;-0.21;1.12;-0.63;5.11
4456;-3.00;-9.48;0.31;-0.14;0.88;-0.21;1.26;-1.12;4.83
4465;-2.92;-9.59;0.37;-0.14;0.88;-0.21;1.12;0.00;6.16
4474;-3.01;-9.56;0.39;-0.14;0.88;-0.21;0.56;2.10;8.61
4483;-2.99;-9.52;0.27;-0.14;0.88;-0.21;1.61;2.45;9.31
4491;-2.97;-9.33;0.14;-0.14;0.88;-0.22;3.57;0.91;8.82
4500;-2.91;-9.31;0.18;-0.14;0.88;-0.22;5.11;-1.12;8.26
4509;-2.81;-9.26;0.06;-0.14;0.88;-0.22;6.02;-1.26;7.49
4518;-2.85;-9.20;0.06;-0.14;0.88;-0.22;3.78;-1.75;6.44
4527;-2.75;-9.15;-0.01;-0.14;0.88;-0.22;1.26;-1.75;4.13
4536;-2.73;-9.20;0.02;-0.14;0.88;-0.22;-1.47;-1.89;2.03
4544;-2.77;-9.27;0.09;-0.15;0.88;-0.21;-3.92;-1.33;-17.71
4553;-2.94;-9.42;0.15;-0.15;0.88;-0.21;-4.83;-1.61;-0.77
4562;-3.01;-9.63;0.24;-0.15;0.88;-0.21;-3.92;-1.12;0.91
4571;-3.03;-9.75;0.34;-0.14;0.89;-0.21;-2.24;-0.98;1.96
4580;-3.08;-9.61;0.32;-0.14;0.89;-0.21;0.21;-17.92;2.59
4589;-3.12;-9.56;0.27;-0.14;0.89;-0.21;1.47;0.14;2.17
4597;-3.26;-9.50;0.19;-0.14;0.88;-0.20;1.47;0.35;2.24
4606;-3.32;-9.58;0.04;-0.14;0.88;-0.20;0.63;-0.07;1.61
4615;-3.28;-9.60;0.06;-0.14;0.88;-0.20;-0.28;-0.77;1.40
4624;-3.37;-9.67;0.03;-0.14;0.88;-0.21;-0.70;-1.05;0.77
4633;-3.45;-9.58;-0.05;-0.14;0.88;-0.21;-0.77;-1.33;0.21
4642;-3.51;-9.47;-0.12;-0.14;0.88;-0.21;-0.56;-2.45;-0.21
4650;-3.71;-9.40;0.04;-0.14;0.89;-0.21;-0.91;-2.45;-1.05
4659;-3.58;-9.41;-0.04;-0.14;0.89;-0.21;-1.61;-1.54;-0.91
4668;-3.73;-9.45;-0.04;-0.14;0.89;-0.21;-2.80;0.14;-0.98
4677;-3.71;-9.46;-0.17;-0.14;0.89;-0.21;-3.08;-0.14;-0.63
4686;-3.83;-9.57;-0.17;-0.14;0.89;-0.21;-2.66;-0.42;-17.92
4694;-3.98;-9.76;-0.13;-0.14;0.89;-0.21;-2.80;-1.19;-0.42
4703;-4.03;-9.73;-0.08;-0.15;0.88;-0.21;-4.34;-1.89;0.56
4712;-3.85;-9.55;-0.10;-0.15;0.88;-0.21;-5.53;-2.03;1.40
4721;-3.90;-9.62;-0.04;-0.15;0.88;-0.21;-6.30;-2.94;1.19
4730;-3.90;-9.55;1.80;-0.14;0.88;-0.20;-4.62;-3.57;1.26
4739;-3.80;-9.59;0.05;-0.14;0.88;-0.20;-3.85;-4.48;0.56
4748;-3.75;-9.66;0.00;-0.14;0.88;-0.21;-3.78;-4.20;0.63
4756;-3.76;-9.60;0.25;-0.14;0.88;-0.21;-4.20;-3.71;1.05
4765;-3.65;-9.54;0.17;-0.14;0.88;-0.21;-4.27;-2.80;1.82
4774;-3.53;-9.43;0.24;-0.14;0.88;-0.21;-2.94;-3.22;2.59
4783;-3.40;-9.37;0.24;-0.14;0.88;-0.21;-1.33;-3.99;2.87
4792;-3.34;-9.34;0.14;-0.14;0.88;-0.21;0.63;-3.92;2.80
4800;-3.22;-9.40;0.24;-0.15;0.88;-0.21;0.00;-3.01;2.38
4809;-3.19;-9.35;0.09;-0.15;0.88;-0.21;-1.33;-2.52;2.17
4818;-3.15;-9.43;0.06;-0.15;0.88;-0.21;-3.50;-2.17;1.19
4827;-3.03;-9.59;0.11;-0.14;0.89;-0.21;-5.32;-1.75;0.21
4836;-2.87;-9.55;0.21;-0.14;0.89;-0.21;-7.42;-2.59;-0.21
4845;-2.71;-9.66;0.22;-0.14;0.89;-0.21;-7.70;-3.08;-1.05
4854;-2.84;-9.70;0.40;-0.14;0.88;-0.22;-6.23;-3.64;-0.91
4863;-2.88;-9.67;0.46;-0.14;0.88;-0.22;-3.64;-5.18;-1.40
4871;-2.92;-9.73;0.45;-0.14;0.88;-0.22;-2.38;-5.39;-1.47
4880;-3.03;-9.91;0.45;-0.15;0.88;-0.21;-1.96;-5.18;0.07
4889;-3.10;-9.93;0.54;-0.15;0.88;-0.21;-3.29;-4.41;2.24
4898;-2.75;-10.06;0.51;-0.15;0.88;-0.21;-4.13;-3.50;3.92
4907;-2.85;-9.88;0.40;-0.14;0.88;-0.22;-4.34;-3.57;5.11
4916;-2.85;-9.83;0.52;-0.14;0.88;-0.22;-3.43;-4.13;6.02
4924;-2.74;-9.66;0.53;-0.14;0.88;-0.22;-2.10;-4.55;6.72
4933;-2.66;-9.42;0.38;-0.14;0.89;-0.22;-1.26;-4.83;6.72
4942;-2.69;-9.32;0.27;-0.14;0.89;-0.22;0.49;-4.97;6.16
4951;-2.95;-9.03;0.24;-0.14;0.89;-0.22;0.91;-5.53;3.78
4960;-2.89;-9.15;0.12;-0.14;0.88;-0.21;-0.98;-6.37;1.54
4968;-3.14;-9.10;0.08;-0.14;0.88;-0.21;-4.48;-4.55;1.12
4977;-3.37;-9.27;0.09;-0.14;0.88;-0.21;-8.75;-2.66;-0.42
4986;-3.31;-9.42;0.19;-0.15;0.88;-0.21;-13.09;-0.21;0.63
4995;-3.50;-9.43;0.16;-0.15;0.88;-0.21;-13.58;1.54;1.26
5004;-3.48;-9.45;0.24;-0.15;0.88;-0.21;-10.71;0.28;-0.21
5012;-3.37;-9.60;0.22;-0.15;0.88;-0.22;-6.23;-1.89;0.28
5021;-3.38;-9.68;0.14;-0.15;0.88;-0.22;-2.94;-4.69;1.33
5030;-3.31;-9.55;0.03;-0.13;0.87;-0.22;-0.56;-7.07;1.89
5039;-3.39;-9.35;-0.04;-0.13;0.87;-0.22;0.84;-8.89;0.77
5048;-3.68;-9.20;-0.01;-0.13;0.87;-0.22;-1.19;-8.47;-1.54
5056;-3.66;-9.30;-0.06;-0.15;0.88;-0.21;-4.90;-8.19;-3.43
5065;-3.85;-9.33;0.04;-0.15;0.88;-0.21;-8.19;-6.44;-3.85
5074;-3.96;-9.26;0.36;-0.15;0.88;-0.21;-10.78;-4.34;-3.85
5083;-3.97;-9.32;0.60;-0.14;0.87;-0.22;-11.34;-0.35;-3.92
5092;-3.84;-9.45;0.50;-0.14;0.87;-0.22;-10.71;2.24;-3.92
5101;-3.76;-9.44;0.62;-0.14;0.87;-0.22;-9.24;3.99;-3.22
5109;-3.70;-9.61;0.42;-0.14;0.89;-0.23;-6.72;3.78;-2.03
5118;-3.52;-9.78;0.29;-0.14;0.89;-0.23;-3.50;1.40;-0.63
5127;-3.52;-9.72;0.20;-0.14;0.89;-0.23;0.70;-0.56;0.63
5136;-3.52;-9.84;0.11;-0.14;0.88;-0.22;2.31;-1.96;1.19
5145;-3.53;-9.66;0.02;-0.14;0.88;-0.22;1.68;-2.87;1.19
5153;-3.57;-9.53;-0.10;-0.14;0.88;-0.22;0.28;-4.69;0.00
5162;-3.52;-9.53;-0.24;-0.15;0.89;-0.21;-3.15;-7.21;-2.24
5171;-3.58;-9.48;-0.08;-0.15;0.89;-0.21;-6.79;-9.59;-3.85
5180;-3.65;-9.47;0.05;-0.15;0.89;-0.21;-9.73;-8.96;-4.83
5189;-3.83;-9.63;0.37;-0.15;0.88;-0.22;-10.92;-6.09;-4.62
5198;-3.95;-10.00;0.59;-0.15;0.88;-0.22;-11.13;-2.10;-1.19
5207;-3.90;-9.96;0.44;-0.15;0.88;-0.22;-10.22;1.19;3.22
5215;-3.89;-9.96;0.44;-0.15;0.88;-0.22;-5.74;0.49;6.09
5224;-3.68;-9.85;0.31;-0.15;0.88;-0.22;-1.12;-2.87;8.12
5233;-3.61;-9.80;0.25;-0.15;0.88;-0.22;3.15;-5.81;10.08
5242;-3.40;-9.53;0.29;-0.14;0.88;-0.24;5.11;-7.56;10.78
5250;-3.21;-9.43;0.13;-0.14;0.88;-0.24;4.90;-8.05;9.38
5259;-3.17;-9.36;0.16;-0.14;0.88;-0.24;1.61;-8.68;6.72
5268;-3.29;-9.25;0.20;-0.14;0.87;-0.21;-2.73;-9.24;3.36
5277;-3.33;-9.25;0.39;-0.14;0.87;-0.21;-7.56;-9.52;-0.56
5286;-3.41;-9.35;0.76;-0.14;0.87;-0.21;-11.34;-7.49;-3.78
5295;-3.45;-9.55;0.98;-0.14;0.88;-0.21;-14.49;1.05;-2.87
5303;-3.65;-9.60;0.89;-0.14;0.88;-0.21;-18.69;11.97;-1.33
5312;-3.53;-9.65;0.80;-0.14;0.88;-0.22;-19.88;19.39;-0.07
5321;-3.99;-9.84;0.47;-0.13;0.88;-0.22;-16.38;21.07;2.10
5330;-4.06;-9.96;0.20;-0.13;0.88;-0.22;-9.52;16.31;3.64
5339;-4.16;-9.86;0.06;-0.14;0.88;-0.23;-2.17;10.36;6.44
5347;-4.19;-9.95;-0.04;-0.14;0.88;-0.23;2.80;4.62;8.40
5356;-3.98;-9.87;0.09;-0.14;0.88;-0.23;3.85;0.84;9.17
5365;-4.01;-9.71;0.01;-0.14;0.88;-0.22;1.40;-0.49;9.38
5374;-3.89;-9.55;0.18;-0.14;0.88;-0.22;-3.78;-0.35;8.40
5383;-3.68;-9.50;0.36;-0.14;0.88;-0.22;-7.84;1.26;7.49
5391;-3.65;-9.39;0.62;-0.14;0.88;-0.23;-10.22;3.64;7.63
5400;-3.50;-9.32;0.73;-0.14;0.88;-0.23;-10.43;5.88;6.79
5409;-3.59;-9.31;0.83;-0.14;0.88;-0.23;-9.45;7.07;6.72
5418;-3.59;-9.25;0.64;-0.14;0.88;-0.22;-7.70;8.47;7.14
5427;-3.45;-9.20;0.53;-0.14;0.88;-0.22;-4.27;7.49;7.00
5435;-3.52;-9.17;0.48;-0.14;0.88;-0.22;-1.96;5.18;7.07
5444;-3.47;-9.10;0.34;-0.13;0.88;-0.23;0.63;1.68;7.21
5453;-3.40;-9.13;0.39;-0.13;0.88;-0.23;1.19;-1.05;5.60
5462;-3.22;-9.04;0.34;-0.13;0.88;-0.23;0.35;-1.96;3.78
5471;-3.22;-9.07;0.27;-0.14;0.88;-0.23;-1.12;-2.73;1.68
5479;-3.24;-9.02;0.08;-0.14;0.88;-0.23;-3.85;-3.71;-1.12
5488;-3.20;-9.07;0.03;-0.14;0.88;-0.23;-8.05;-5.53;-3.85
5497;-3.49;-9.12;0.07;-0.14;0.88;-0.24;-11.55;-6.09;-6.16
5506;-3.53;-9.31;0.42;-0.14;0.88;-0.24;-15.75;-4.34;-7.14
5515;-3.49;-9.60;0.62;-0.14;0.88;-0.24;-19.60;0.21;-5.18
5524;-4.03;-9.69;0.80;-0.14;0.89;-0.24;-18.55;4.55;-3.36
5532;-3.95;-9.71;0.68;-0.14;0.89;-0.24;-14.42;3.71;-1.75
5541;-3.70;-9.69;0.73;-0.14;0.89;-0.24;-7.35;2.80;3.71
5550;-4.09;-9.48;0.88;-0.14;0.88;-0.22;-1.47;-1.19;4.69
5559;-3.61;-9.57;0.93;-0.14;0.88;-0.22;3.78;-3.36;8.33
5568;-3.48;-9.49;0.79;-0.14;0.88;-0.22;6.37;-1.68;8.26
5577;-3.47;-9.34;0.62;-0.13;0.88;-0.23;6.02;0.28;8.12
5585;-3.28;-9.36;0.29;-0.13;0.88;-0.23;3.01;1.61;6.86
5594;-3.30;-9.28;0.41;-0.13;0.88;-0.23;-0.77;0.84;5.32
5603;-3.35;-9.27;0.51;-0.14;0.88;-0.23;-3.64;-0.21;4.13
5612;-3.28;-9.25;0.42;-0.14;0.88;-0.23;-5.60;-1.89;2.94
5621;-3.33;-9.35;0.73;-0.13;0.88;-0.23;-6.65;-2.45;3.43
5630;-3.29;-9.39;0.99;-0.13;0.88;-0.23;-5.32;-1.89;5.11
5638;-3.35;-9.40;1.04;-0.13;0.88;-0.23;-3.29;1.19;6.30
5647;-3.38;-9.48;1.03;-0.13;0.87;-0.22;-0.28;3.08;7.91
5656;-3.25;-9.52;0.98;-0.13;0.87;-0.22;3.64;5.04;8.54
5665;-3.30;-9.46;0.77;-0.13;0.87;-0.22;5.46;5.81;9.03
5673;-3.36;-9.43;0.66;-0.13;0.88;-0.23;5.46;6.02;9.38
5682;-3.25;-9.27;0.67;-0.13;0.88;-0.23;4.20;4.41;8.61
5691;-3.22;-9.27;0.77;-0.13;0.88;-0.23;0.84;4.48;8.33
5700;-3.30;-9.15;1.18;-0.12;0.87;-0.24;0.00;5.18;8.12
5709;-3.01;-9.19;1.37;-0.12;0.87;-0.24;0.77;6.44;7.14
5718;-2.97;-9.18;1.49;-0.12;0.87;-0.24;2.87;10.29;6.02
5727;-3.06;-9.15;1.46;-0.13;0.88;-0.23;3.22;15.61;5.67
5735;-3.23;-9.32;1.28;-0.13;0.88;-0.23;1.82;19.67;5.74
5744;-3.30;-9.46;1.01;-0.13;0.88;-0.23;1.19;21.84;5.25
5753;-3.45;-9.48;1.06;-0.13;0.87;-0.23;-0.21;21.14;5.04
5762;-3.44;-9.69;1.02;-0.13;0.87;-0.23;0.84;19.25;4.97
5771;-3.40;-9.59;1.06;-0.13;0.87;-0.23;3.99;17.29;5.25
5779;-3.37;-9.53;0.77;-0.12;0.88;-0.22;6.79;14.77;5.95
5788;-3.29;-9.51;0.65;-0.12;0.88;-0.22;7.00;12.60;5.74
5797;-3.10;-9.49;0.58;-0.12;0.88;-0.22;6.23;12.60;5.46
5806;-3.20;-9.34;0.47;-0.12;0.87;-0.23;4.76;12.60;3.85
5815;-3.19;-9.41;0.32;-0.12;0.87;-0.23;1.75;10.71;1.68
5823;-3.22;-9.39;0.06;-0.12;0.87;-0.23;0.56;8.54;-0.49
5832;-3.29;-9.38;0.06;-0.11;0.88;-0.23;-1.47;4.41;-2.38
5841;-3.29;-9.39;0.22;-0.11;0.88;-0.23;-1.75;-0.98;-3.64
5850;-3.32;-9.33;0.16;-0.11;0.88;-0.23;-1.19;-5.39;-4.69
5859;-3.28;-9.27;0.43;-0.12;0.87;-0.23;-2.10;-8.96;-5.95
5867;-3.32;-9.25;0.57;-0.12;0.87;-0.23;-3.99;-9.17;-6.65
5876;-3.24;-9.29;0.68;-0.12;0.87;-0.23;-5.53;-5.53;-5.81
5885;-3.30;-9.34;0.66;-0.12;0.87;-0.22;-5.53;0.49;-5.25
5894;-3.42;-9.35;0.63;-0.12;0.87;-0.22;-3.22;7.70;-4.83
5903;-3.60;-9.41;0.32;-0.13;0.87;-0.22;-1.96;10.08;-5.18
5912;-3.63;-9.48;0.01;-0.13;0.87;-0.22;-0.56;9.31;-4.55
5920;-3.48;-9.54;-0.07;-0.13;0.87;-0.22;-0.14;5.81;-4.41
5929;-3.52;-9.50;-0.09;-0.12;0.88;-0.23;-0.98;2.03;-4.06
5938;-3.60;-9.42;0.05;-0.12;0.88;-0.23;-2.24;-1.82;-3.85
5947;-3.45;-9.36;0.27;-0.12;0.88;-0.23;-3.92;-4.69;-3.71
5956;-3.42;-9.40;0.53;-0.11;0.87;-0.23;-5.11;-5.25;-4.13
5964;-3.45;-9.59;0.90;-0.11;0.87;-0.23;-6.23;-3.08;-3.57
5973;-3.53;-9.50;0.76;-0.11;0.87;-0.23;-5.11;1.19;-0.63
5982;-3.89;-9.87;0.99;-0.12;0.88;-0.22;-3.64;4.48;0.28
5991;-3.55;-9.77;0.87;-0.12;0.88;-0.22;-0.49;4.76;0.35
6000;-3.37;-9.86;0.90;-0.12;0.88;-0.22;3.36;6.37;3.85
6008;-3.21;-9.74;0.85;-0.11;0.88;-0.22;6.09;5.88;4.90
6017;-3.03;-9.48;0.67;-0.11;0.88;-0.22;7.91;4.83;5.60
6026;-2.96;-9.50;0.70;-0.11;0.88;-0.22;5.88;3.78;5.04
6035;-3.09;-9.54;0.75;-0.12;0.88;-0.24;3.92;2.31;4.83
6044;-3.14;-9.43;0.72;-0.12;0.88;-0.24;2.17;0.98;3.57
6052;-3.13;-9.49;0.82;-0.12;0.88;-0.24;0.84;-1.40;2.10
6061;-3.23;-9.49;0.90;-0.13;0.88;-0.25;0.28;-1.40;0.91
6070;-3.07;-9.54;0.88;-0.13;0.88;-0.25;-0.70;-1.89;0.14
6079;-2.81;-9.50;0.80;-0.13;0.88;-0.25;-0.70;-1.96;-1.47
6088;-2.86;-9.45;0.80;-0.14;0.87;-0.24;-1.61;-1.47;-4.13
6096;-2.86;-9.50;0.66;-0.14;0.87;-0.24;-4.97;-1.68;-7.49
6105;-3.01;-9.50;0.50;-0.14;0.87;-0.24;-8.89;-3.29;-10.01
6114;-3.31;-9.50;0.42;-0.12;0.88;-0.24;-11.69;-7.98;-10.64
6123;-2.99;-9.83;0.40;-0.12;0.88;-0.24;-10.43;-14.00;-11.55
6132;-3.35;-9.42;0.30;-0.12;0.88;-0.24;-6.30;-17.22;-8.26
6141;-3.70;-9.47;0.68;-0.14;0.87;-0.23;-3.15;-21.00;-7.84
6149;-3.17;-9.38;0.68;-0.14;0.87;-0.23;-0.14;-23.03;-10.01
6158;-3.06;-9.31;0.51;-0.14;0.87;-0.23;2.66;-17.78;-9.31
6167;-3.24;-9.29;0.48;-0.13;0.88;-0.23;-1.19;-13.02;-10.22
6176;-3.27;-9.46;0.41;-0.13;0.88;-0.23;-4.41;-9.24;-11.97
6185;-3.28;-9.41;0.14;-0.14;0.86;-0.23;-7.49;-6.51;-14.91
6194;-3.44;-9.38;0.05;-0.14;0.86;-0.23;-9.10;-5.60;-16.45
6203;-3.67;-9.34;-0.09;-0.14;0.86;-0.23;-12.04;-6.58;-18.48
6211;-4.01;-9.60;-0.01;-0.14;0.88;-0.24;-14.63;-7.14;-18.13
6220;-4.26;-9.69;0.22;-0.14;0.88;-0.24;-18.27;-9.52;-17.22
6229;-4.31;-9.83;0.61;-0.14;0.88;-0.24;-20.58;-10.22;-13.02
6238;-4.31;-9.97;1.40;-0.14;0.86;-0.24;-17.85;-8.75;-11.55
6247;-4.57;-9.62;1.64;-0.14;0.86;-0.24;-12.74;-6.58;-6.44
6256;-4.13;-9.35;1.90;-0.14;0.86;-0.24;-7.42;-4.55;-3.71
6265;-3.88;-9.25;1.95;-0.14;0.86;-0.23;-0.28;0.91;-2.94
6273;-3.78;-9.03;1.69;-0.14;0.86;-0.23;3.92;8.26;-0.84
6282;-3.82;-8.99;1.40;-0.14;0.86;-0.23;5.46;13.86;-1.40
6291;-3.96;-8.98;1.03;-0.14;0.87;-0.24;4.69;18.27;-2.80
6300;-4.08;-9.05;0.83;-0.14;0.87;-0.24;1.05;18.83;-4.76
6309;-4.29;-9.07;0.68;-0.14;0.87;-0.24;-2.94;15.68;-6.02
6318;-4.29;-9.18;0.73;-0.15;0.86;-0.24;-5.39;12.04;-7.77
6326;-4.21;-9.37;0.93;-0.15;0.86;-0.24;-5.39;10.64;-7.91
6335;-4.42;-9.24;1.03;-0.15;0.86;-0.24;-3.64;10.43;-7.49
6344;-4.51;-9.32;1.12;-0.15;0.87;-0.25;-3.15;9.59;-6.37
6353;-4.26;-9.43;1.15;-0.15;0.87;-0.25;-1.12;11.55;-5.04
6362;-4.29;-9.25;1.08;-0.15;0.87;-0.25;-0.49;13.72;-4.41
6371;-3.96;-9.10;1.15;-0.14;0.86;-0.24;-0.91;16.52;-2.94
6379;-4.08;-9.14;1.25;-0.14;0.86;-0.24;0.00;19.11;-3.71
6388;-4.08;-9.05;1.11;-0.14;0.86;-0.24;2.17;18.83;-4.83
6397;-4.19;-9.20;1.06;-0.14;0.87;-0.23;1.89;17.57;-4.90
6406;-4.02;-9.22;0.95;-0.14;0.87;-0.23;2.45;17.71;-4.62
6415;-4.05;-9.11;0.72;-0.14;0.87;-0.23;2.10;17.01;-4.69
6423;-4.04;-9.07;0.80;-0.15;0.86;-0.24;-0.28;15.96;-4.55
6432;-4.11;-9.06;0.68;-0.15;0.86;-0.24;0.00;13.44;-3.36
6441;-4.13;-9.06;0.85;-0.00;0.87;-0.25;1.12;11.13;-4.69
6450;-4.05;-9.24;0.73;-0.14;0.87;-0.25;0.91;10.78;-4.55
6459;-4.72;-8.99;0.89;-0.14;0.87;-0.25;-4.06;8.89;-9.24
6467;-3.69;-9.50;0.93;-0.14;0.87;-0.24;-11.62;10.92;-5.11
6476;-4.04;-9.32;1.34;-0.14;0.87;-0.24;-5.32;10.36;-0.14
6485;-3.87;-9.24;1.39;-0.14;0.87;-0.24;2.59;7.14;-0.63
6494;-3.72;-9.32;1.24;-0.14;0.86;-0.23;9.73;7.49;-1.19
6503;-3.91;-9.35;1.06;-0.14;0.86;-0.23;8.40;9.94;-0.84
6511;-3.98;-11.03;0.73;-0.14;0.86;-0.23;3.50;11.90;-0.70
6520;-4.01;-9.18;0.79;-0.14;0.86;-0.24;-1.05;11.34;-2.73
6529;-3.98;-9.12;0.75;-0.14;0.86;-0.24;-4.48;7.98;-4.20
6538;-3.95;-9.09;0.85;-0.14;0.86;-0.24;-5.25;5.53;-4.69
6547;-3.96;-9.07;1.13;-0.13;0.86;-0.24;-4.34;3.71;-4.97
6556;-3.78;-8.99;1.16;-0.13;0.86;-0.24;-2.87;4.55;-5.46
6565;-3.70;-8.92;1.01;-0.13;0.86;-0.24;-2.66;7.07;-6.65
6573;-3.73;-8.87;0.87;-0.14;0.86;-0.24;-5.46;10.29;-8.82
6582;-3.70;-8.89;0.78;-0.14;0.86;-0.24;-9.80;10.64;-12.60
6591;-3.80;-9.10;0.70;-0.14;0.86;-0.24;-13.65;11.13;-15.12
6600;-4.13;-9.37;0.76;-0.15;0.86;-0.24;-15.33;8.68;-14.77
6609;-4.35;-9.50;0.98;-0.15;0.86;-0.24;-14.07;4.83;-13.02
6618;-4.44;-9.54;1.28;-0.15;0.86;-0.24;-11.13;0.63;-9.45
6626;-4.08;-9.45;1.59;-0.14;0.87;-0.25;-8.19;-2.17;-5.32
6635;-3.84;-9.24;1.52;-0.14;0.87;-0.25;-3.92;-1.33;-3.99
6644;-3.83;-9.01;1.51;-0.14;0.87;-0.25;-2.10;1.96;-4.48
6653;-3.74;-8.91;1.18;-0.14;0.87;-0.25;-3.36;6.44;-5.95
6662;-3.94;-8.96;0.98;-0.14;0.87;-0.25;-5.95;9.87;-7.77
6671;-4.05;-9.02;0.64;-0.14;0.87;-0.25;-9.94;8.40;-9.59
6679;-3.89;-9.14;0.93;-0.15;0.86;-0.24;-11.27;5.18;-9.80
6688;-3.96;-9.06;0.98;-0.15;0.86;-0.24;-9.38;2.38;-8.89
6697;-3.81;-9.21;1.23;-0.15;0.86;-0.24;-7.77;1.40;-9.24
6706;-3.99;-9.26;1.31;-0.14;0.86;-0.25;-7.28;1.89;-8.05
6715;-4.07;-9.28;1.21;-0.14;0.86;-0.25;-7.42;2.17;-7.21
6724;-4.31;-9.12;1.43;-0.14;0.86;-0.25;-6.09;0.91;-5.74
6732;-4.48;-9.08;1.45;-0.14;0.86;-0.25;-4.76;-1.12;-5.11
6741;-4.43;-9.13;1.85;-0.14;0.86;-0.25;-3.08;-2.31;-3.29
6750;-4.47;-8.84;1.80;-0.14;0.86;-0.25;-0.07;-1.12;-1.40
6759;-4.06;-8.91;1.77;-0.14;0.86;-0.25;1.82;-1.26;-1.40
6768;-3.70;-8.93;1.59;-0.14;0.86;-0.25;3.92;2.45;-3.99
6777;-3.91;-8.86;1.07;-0.15;0.85;-0.25;0.77;6.65;-5.11
6785;-4.11;-8.89;0.75;-0.15;0.85;-0.25;-5.95;6.86;-7.35
6794;-4.36;-9.08;0.65;-0.15;0.85;-0.25;-10.43;4.90;-8.96
6803;-4.61;-9.26;0.86;-0.13;0.86;-0.25;-12.11;-0.21;-8.75
6812;-4.64;-9.38;1.11;-0.13;0.86;-0.25;-9.80;-5.04;-5.32
6821;-4.57;-9.26;1.41;-0.13;0.86;-0.25;-5.18;-8.26;-2.59
6830;-4.44;-9.23;1.57;-0.15;0.85;-0.25;-0.70;-9.52;-0.98
6838;-4.20;-9.09;1.44;-0.15;0.85;-0.25;0.84;-7.00;0.07
6847;-4.06;-8.92;1.62;-0.15;0.85;-0.25;-0.35;-3.85;-1.26
6856;-3.99;-8.84;1.57;-0.15;0.85;-0.25;-2.80;-0.42;-3.92
6865;-3.98;-9.06;1.56;-0.15;0.85;-0.25;-5.32;2.45;-5.18
6874;-4.25;-9.24;1.43;-0.15;0.85;-0.25;-6.72;2.94;-5.46
6882;-4.57;-9.52;1.50;-0.15;0.85;-0.26;-6.51;1.89;-4.27
6891;-4.57;-9.63;1.41;-0.15;0.85;-0.26;-4.41;-0.77;-2.31
6900;-4.54;-9.61;1.37;-0.15;0.85;-0.26;-1.75;-2.80;0.70
6909;-4.54;-9.39;1.23;-0.15;0.85;-0.26;0.28;-4.13;2.73
6918;-4.54;-9.18;1.32;-0.15;0.85;-0.26;1.05;-4.83;3.99
6927;-4.43;-9.21;1.51;-0.15;0.85;-0.26;1.61;-5.11;3.92
6935;-4.26;-9.26;1.56;-0.16;0.85;-0.25;2.31;-4.48;4.76
6944;-4.12;-9.37;1.43;-0.16;0.85;-0.25;3.64;-2.94;5.60
6953;-3.92;-9.48;1.41;-0.16;0.85;-0.25;4.13;-1.40;5.46
6962;-3.91;-9.45;1.05;-0.15;0.86;-0.25;2.66;0.98;5.67
6971;-4.08;-9.45;0.83;-0.15;0.86;-0.25;-1.61;1.12;5.60
6979;-4.09;-9.26;0.78;-0.15;0.86;-0.25;-3.78;-1.05;3.57
6988;-4.16;-9.11;0.83;-0.15;0.86;-0.25;-6.65;-3.15;2.03
6997;-4.25;-8.94;0.96;-0.15;0.86;-0.25;-8.19;-4.34;0.28
7006;-4.34;-8.96;1.41;-0.15;0.86;-0.25;-9.31;-4.90;-0.35
7015;-4.40;-9.22;1.70;-0.15;0.86;-0.25;-8.75;-5.04;-0.28
7023;-4.46;-9.47;1.64;-0.15;0.86;-0.25;-7.07;-4.76;1.26
7032;-4.31;-9.52;1.82;-0.15;0.85;-0.25;-3.71;-5.53;3.99
7041;-4.01;-9.49;0.22;-0.15;0.85;-0.25;0.63;-4.06;6.44
7050;-3.94;-9.17;1.74;-0.15;0.85;-0.25;1.75;-0.56;6.86
7059;-3.94;-9.10;1.51;-0.15;0.85;-0.25;-0.77;2.24;5.25
7068;-4.24;-8.93;1.31;-0.15;0.85;-0.25;-5.11;4.69;3.92
7076;-4.29;-8.74;1.39;-0.15;0.85;-0.25;-7.84;3.78;2.45
7085;-4.28;-8.79;1.46;-0.15;0.85;-0.25;-7.28;1.54;1.05
7094;-4.34;-8.98;1.57;-0.15;0.85;-0.25;-5.74;-1.33;1.47
7103;-4.28;-9.03;1.69;-0.15;0.85;-0.25;-3.08;-2.66;1.89
7112;-4.05;-8.94;1.60;-0.15;0.85;-0.25;-2.10;-2.87;2.73
7120;-3.96;-8.91;1.62;-0.15;0.85;-0.25;-1.54;-1.40;2.31
7129;-4.12;-8.96;1.54;-0.15;0.85;-0.25;-4.06;0.14;2.45
7138;-4.27;-9.02;1.58;-0.14;0.85;-0.25;-5.11;-0.14;3.01
7147;-4.39;-8.97;1.62;-0.14;0.85;-0.25;-3.99;-0.49;4.20
7156;-4.34;-8.97;1.82;-0.14;0.85;-0.25;-1.96;-1.61;4.69
7165;-4.32;-8.84;1.83;-0.15;0.85;-0.27;0.35;-0.77;6.16
7173;-4.17;-8.73;1.86;-0.15;0.85;-0.27;1.96;-0.84;6.72
7182;-3.97;-8.74;1.64;-0.15;0.85;-0.27;3.43;1.05;5.95
7191;-4.03;-9.02;1.40;-0.15;0.85;-0.26;1.89;3.43;5.60
7200;-4.13;-9.02;1.06;-0.15;0.85;-0.26;0.00;3.78;5.04
7209;-4.13;-8.94;0.90;-0.15;0.85;-0.26;-2.66;2.80;4.06
7217;-4.19;-8.87;0.75;-0.15;0.86;-0.26;-4.69;-0.21;3.08
7226;-4.30;-8.93;0.95;-0.15;0.86;-0.26;-7.56;-2.87;2.03
7235;-4.27;-9.01;1.19;-0.15;0.86;-0.26;-8.05;-4.34;2.03
7244;-4.28;-9.05;1.64;-0.15;0.85;-0.27;-7.21;-4.20;2.59
7253;-4.23;-9.20;3.60;-0.15;0.85;-0.27;-5.11;-3.15;3.64
7262;-4.29;-9.42;1.92;-0.15;0.85;-0.27;-2.94;-1.54;5.18
7270;-4.30;-9.37;1.97;-0.15;0.85;-0.26;-1.40;0.49;7.77
7279;-4.13;-9.29;1.97;-0.15;0.85;-0.26;0.77;0.91;8.96
7288;-4.04;-9.24;1.94;-0.15;0.85;-0.26;1.05;2.03;8.12
7297;-3.82;-9.27;1.81;-0.15;0.85;-0.26;-1.05;5.60;6.72
7306;-3.97;-9.40;1.59;-0.15;0.85;-0.26;-4.97;8.75;5.88
7314;-4.28;-9.51;1.25;-0.14;0.84;-0.27;-7.56;10.36;5.60
7323;-4.36;-9.42;1.04;-0.14;0.84;-0.27;-9.66;9.66;6.72
7332;-4.33;-9.65;1.16;-0.14;0.84;-0.27;-9.80;6.58;8.40
7341;-4.31;-9.63;0.98;-0.15;0.86;-0.26;-9.17;4.90;10.64
7350;-4.33;-9.27;1.14;-0.15;0.86;-0.26;-9.10;2.52;14.21
7359;-4.10;-8.82;1.49;-0.15;0.86;-0.26;-10.08;-1.75;13.79
7367;-3.88;-8.34;2.18;-0.13;0.84;-0.26;-12.25;-3.08;10.78
7376;-3.75;-8.15;2.61;-0.13;0.84;-0.26;-17.01;-1.68;4.76
7385;-3.68;-8.27;3.09;-0.13;0.84;-0.26;-20.79;3.71;-0.14
7394;-3.56;-9.01;3.12;-0.13;0.84;-0.27;-21.21;11.27;-2.87
7403;-4.49;-8.82;3.12;-0.13;0.84;-0.27;-21.07;17.92;-3.22
7411;-4.17;-9.11;2.68;-0.13;0.84;-0.27;-18.97;22.26;-1.54
7420;-4.43;-9.49;2.10;-0.13;0.84;-0.27;-13.51;26.04;0.70
7429;-4.59;-9.72;1.44;-0.13;0.84;-0.27;-8.82;25.13;4.62
7438;-4.54;-9.93;0.69;-0.13;0.84;-0.27;-4.41;21.70;10.36
7447;-4.62;-9.40;0.38;-0.13;0.84;-0.27;-1.26;11.97;14.77
7456;-4.49;-8.81;0.68;-0.13;0.84;-0.27;-1.82;-3.92;17.01
7464;-3.85;-8.41;1.54;-0.13;0.84;-0.27;-1.33;-17.71;13.58
7473;-3.57;-8.40;2.35;-0.13;0.85;-0.27;-0.84;-20.51;9.80
7482;-3.42;-8.54;2.86;-0.13;0.85;-0.27;-2.94;-13.58;6.86
7491;-3.34;-8.81;2.89;-0.13;0.85;-0.27;-5.88;-2.94;5.81
7500;-3.40;-9.17;2.54;-0.13;0.85;-0.27;-7.91;8.47;5.81
7509;-3.72;-9.50;2.29;-0.13;0.85;-0.27;-5.11;14.84;7.00
7517;-3.78;-9.60;1.49;-0.13;0.85;-0.27;-0.63;15.19;8.96
7526;-4.00;-9.71;1.22;-0.12;0.84;-0.27;4.83;11.97;13.72
7535;-4.15;-9.48;0.87;-0.12;0.84;-0.27;7.98;3.01;17.01
7544;-4.05;-9.19;0.70;-0.12;0.84;-0.27;8.26;-6.58;18.34
7553;-3.85;-8.89;0.79;-0.12;0.84;-0.28;5.39;-14.35;16.87
7561;-3.76;-8.80;1.21;-0.12;0.84;-0.28;-17.64;-17.92;12.95
7570;-3.53;-8.68;1.49;-0.12;0.85;-0.27;-6.44;-15.82;10.43
7579;-3.36;-8.78;1.61;-0.12;0.85;-0.27;-11.83;-10.36;7.49
7588;-3.43;-8.81;1.74;-0.12;0.85;-0.27;-17.50;-3.99;4.76
7597;-3.64;-9.17;1.77;-0.12;0.83;-0.28;-22.33;3.29;3.43
7605;-3.84;-9.30;1.54;-0.12;0.83;-0.28;-21.49;5.81;5.81
7614;-4.15;-9.31;1.40;-0.12;0.83;-0.28;-16.59;2.52;9.03
7623;-4.27;-9.20;1.51;-0.12;0.83;-0.29;-11.55;-5.39;11.69
7632;-4.21;-9.01;1.79;-0.12;0.83;-0.29;-6.30;-14.00;14.63
7641;-3.90;-8.80;2.19;-0.12;0.83;-0.29;-1.05;-20.09;16.17
7650;-3.56;-8.66;2.35;-0.12;0.83;-0.28;1.82;-23.03;15.47
7658;-3.33;-8.66;2.61;-0.12;0.83;-0.28;2.52;-21.21;13.86
7667;-3.16;-8.52;2.62;-0.12;0.83;-0.28;1.61;-16.24;10.78
7676;-3.19;-8.61;2.67;-0.12;0.84;-0.29;-0.77;-8.89;8.12
7685;-3.21;-8.79;2.39;-0.12;0.84;-0.29;-3.01;-2.87;6.02
7694;-3.40;-9.04;2.04;-0.12;0.84;-0.29;-4.27;3.29;4.27
7703;-3.68;-9.20;1.83;-0.11;0.83;-0.29;-4.76;7.14;4.20
7711;-3.76;-9.22;1.58;-0.11;0.83;-0.29;-2.03;5.18;5.81
7720;-3.75;-9.32;1.40;-0.11;0.83;-0.29;2.38;0.07;7.42
7729;-3.75;-9.25;1.41;-0.11;0.83;-0.29;6.79;-5.53;9.10
7738;-3.65;-9.21;1.18;-0.11;0.83;-0.29;8.89;-12.88;9.59
7747;-3.57;-9.04;1.28;-0.11;0.83;-0.29;7.07;-17.64;8.61
7755;-3.48;-8.89;1.46;-0.12;0.83;-0.29;1.96;-21.77;6.16
7764;-3.29;-9.05;1.90;-0.12;0.83;-0.29;-2.24;-21.07;3.92
7773;-3.29;-9.19;2.32;-0.12;0.83;-0.29;-5.74;-16.80;2.24
7782;-3.29;-9.22;2.64;-0.12;0.84;-0.29;-7.91;-10.78;1.68
7791;-3.40;-9.19;2.67;-0.12;0.84;-0.29;-5.95;-5.11;2.38
7800;-3.47;-9.17;2.46;-0.12;0.84;-0.29;-0.35;-0.42;3.78
7808;-3.48;-9.30;2.53;-0.11;0.84;-0.28;5.53;2.87;5.11
7817;-3.46;-9.14;2.09;-0.11;0.84;-0.28;10.71;2.80;6.30
7826;-3.52;-9.16;1.80;-0.11;0.84;-0.28;13.72;0.42;6.23
7835;-3.45;-9.20;1.41;-0.12;0.84;-0.29;16.17;-2.45;6.02
7844;-3.59;-9.24;0.93;-0.12;0.84;-0.29;16.24;-4.48;4.34
7852;-3.04;-9.12;0.87;-0.12;0.85;-0.27;12.60;-9.87;0.84
7861;-3.40;-9.10;1.16;-0.12;0.85;-0.27;7.56;-10.29;-0.28
7870;-3.29;-9.11;1.03;-0.12;0.85;-0.27;0.98;-12.32;-3.64
7879;-3.37;-9.06;1.54;-0.12;0.85;-0.27;-3.99;-13.23;-5.04
7888;-3.50;-9.06;1.89;-0.12;0.85;-0.27;-6.16;-12.39;-4.83
7896;-3.54;-9.12;2.20;-0.12;0.85;-0.27;-4.76;-9.52;-4.76
7905;-3.54;-9.31;2.46;-0.12;0.84;-0.29;-2.94;-4.76;-4.20
7914;-3.60;-9.37;2.33;-0.12;0.84;-0.29;-0.77;0.21;-3.15
7923;-3.65;-9.43;2.20;-0.12;0.84;-0.29;2.03;2.94;-1.33
7932;-3.84;-9.43;1.74;-0.12;0.84;-0.28;4.90;2.38;-17.92
7941;-3.85;-9.35;1.34;-0.12;0.84;-0.28;7.42;-1.47;0.00
7949;-3.86;-9.38;1.26;-0.12;0.84;-0.28;7.98;-6.72;0.42
7958;-3.83;-7.39;1.28;-0.13;0.84;-0.27;6.79;-12.25;-0.63
7967;-3.55;-9.04;1.28;-0.13;0.84;-0.27;4.69;-15.75;-2.31
7976;-3.55;-8.95;1.46;-0.13;0.84;-0.27;3.08;-16.59;-4.83
7985;-3.47;-9.01;1.59;-0.12;0.84;-0.27;1.12;-13.79;-5.74
7993;-3.51;-8.93;1.79;-0.12;0.84;-0.27;-0.21;-9.45;-7.42
8002;-3.46;-9.15;1.88;-0.12;0.84;-0.27;0.14;-4.62;-7.91
8011;-3.44;-9.40;1.92;-0.13;0.86;-0.27;2.10;-0.21;-6.86
8020;-3.55;-9.43;1.70;-0.13;0.86;-0.27;5.39;2.17;-5.18
8029;-3.52;-9.44;1.47;-0.13;0.86;-0.27;9.38;-0.49;-4.69
8037;-3.58;-9.48;1.36;-0.12;0.85;-0.27;11.76;-6.58;-4.27
8046;-3.44;-9.50;1.24;-0.12;0.85;-0.27;12.46;-12.53;-3.36
8055;-3.50;-9.19;1.34;-0.12;0.85;-0.27;12.53;-17.36;-1.68
8064;-3.25;-9.21;1.51;-0.12;0.85;-0.28;9.73;-19.18;-1.54
8073;-3.29;-9.16;1.64;-0.12;0.85;-0.28;4.34;-16.45;-1.19
8082;-3.04;-9.23;1.80;-0.12;0.85;-0.28;-0.42;-10.85;-1.05
8090;-2.99;-9.24;1.82;-0.12;0.84;-0.26;-4.34;-4.69;-2.10
8099;-2.99;-9.32;0.05;-0.12;0.84;-0.26;-7.70;0.70;-3.22
8108;-3.11;-9.49;1.73;-0.12;0.84;-0.26;-7.49;4.69;-3.78
8117;-3.17;-9.63;1.49;-0.13;0.85;-0.28;-4.83;4.55;-2.66
8126;-3.41;-9.61;1.29;-0.13;0.85;-0.28;0.28;0.42;-1.75
8134;-3.48;-9.80;1.16;-0.13;0.85;-0.27;4.55;-5.18;-0.56
8143;-3.55;-9.78;1.21;-0.12;0.84;-0.27;7.14;-11.27;1.68
8152;-3.51;-9.82;1.42;-0.12;0.84;-0.27;10.22;-14.14;3.71
8161;-3.47;-9.74;1.31;-0.13;0.85;-0.27;12.25;-14.21;4.97
8170;-3.38;-9.53;1.34;-0.13;0.85;-0.27;12.32;-13.23;6.23
8179;-3.18;-9.48;1.30;-0.13;0.85;-0.27;10.15;-11.34;6.09
8188;-3.13;-9.40;1.28;-0.13;0.86;-0.28;8.12;-9.17;5.74
8196;-3.16;-9.28;1.26;-0.13;0.86;-0.28;5.74;-6.93;5.04
8205;-3.12;-9.18;1.05;-0.13;0.86;-0.28;4.48;-5.04;3.99
8214;-3.24;-8.95;1.06;-0.12;0.85;-0.26;6.02;-4.69;3.43
8223;-3.26;-8.94;0.96;-0.12;0.85;-0.26;8.89;-5.25;3.43
8232;-3.23;-8.79;0.81;-0.12;0.85;-0.26;10.78;-7.63;2.10
8240;-3.32;-8.84;0.80;-0.12;0.85;-0.25;10.43;-11.06;0.28
8249;-3.38;-8.73;0.81;-0.12;0.85;-0.25;8.89;-14.21;-0.98
8258;-3.40;-8.89;1.06;-0.12;0.85;-0.25;4.48;-14.28;-2.59
8267;-3.29;-8.68;1.30;-0.14;0.86;-0.25;-1.75;-11.20;-3.78
8276;-3.24;-8.87;1.51;-0.14;0.86;-0.25;-8.26;-7.14;-5.60
8285;-3.22;-9.04;1.69;-0.14;0.86;-0.25;-12.88;-3.15;-8.19
8294;-3.22;-9.26;3.67;-0.14;0.86;-0.25;-15.19;-0.63;-8.26
8302;-3.44;-9.54;1.92;-0.14;0.86;-0.25;-13.79;0.49;-8.82
8311;-3.52;-9.76;1.86;-0.14;0.86;-0.25;-10.22;-0.35;-8.05
8320;-3.55;-9.76;1.67;-0.15;0.85;-0.26;-4.76;-1.89;-7.35
8329;-3.70;-9.66;1.49;-0.15;0.85;-0.26;-2.31;-3.92;-7.84
8338;-3.70;-9.76;1.50;-0.15;0.85;-0.26;-1.26;-6.16;-8.26
8347;-3.73;-9.85;1.64;-0.15;0.86;-0.28;-1.33;-7.49;-8.12
8355;-3.77;-9.80;1.76;-0.15;0.86;-0.28;-1.05;-8.75;-7.70
8364;-3.78;-9.69;1.90;-0.15;0.86;-0.28;-0.70;-9.52;-7.14
8373;-3.93;-9.68;1.92;-0.14;0.85;-0.27;-0.21;-8.61;-5.60
8382;-3.96;-9.61;1.90;-0.14;0.85;-0.27;0.00;-7.70;-4.34
8391;-4.01;-9.55;1.90;-0.14;0.85;-0.27;1.82;-6.79;-2.17
8400;-3.93;-9.51;1.90;-0.14;0.85;-0.25;2.45;-6.23;-1.19
8408;-3.96;-9.53;1.97;-0.14;0.85;-0.25;2.80;-4.20;0.98
8417;-3.93;-9.58;1.93;-0.14;0.85;-0.27;5.32;-2.31;2.59
8426;-3.93;-9.52;1.69;-0.14;0.85;-0.27;8.26;-0.07;4.06
8435;-3.92;-9.58;1.54;-0.14;0.85;-0.27;10.99;2.87;5.39
8444;-3.97;-9.41;1.51;-0.14;0.86;-0.26;11.83;3.85;6.58
8453;-3.98;-9.43;1.47;-0.14;0.86;-0.26;11.69;2.80;7.07
8461;-3.85;-9.50;1.50;-0.14;0.86;-0.26;11.90;1.12;8.33
8470;-3.73;-9.37;1.56;-0.14;0.86;-0.26;10.92;-0.07;8.61
8479;-3.50;-9.14;1.62;-0.14;0.86;-0.26;8.33;-0.21;8.26
8488;-3.56;-9.18;1.72;-0.14;0.86;-0.26;7.49;0.35;8.82
8496;-3.45;-9.17;1.79;-0.13;0.86;-0.26;7.07;3.50;9.17
8505;-3.65;-9.11;1.78;-0.13;0.86;-0.26;7.42;7.07;9.03
8514;-3.67;-9.14;1.60;-0.13;0.86;-0.26;8.12;9.31;8.68
8523;-3.50;-9.20;1.31;-0.14;0.86;-0.27;10.78;10.43;8.61
8532;-3.59;-9.17;1.23;-0.14;0.86;-0.27;13.93;8.47;7.84
8540;-3.52;-9.30;1.18;-0.14;0.86;-0.27;18.20;5.46;8.26
8549;-3.57;-9.09;1.10;-0.14;0.86;-0.26;22.05;2.45;9.31
8558;-3.45;-9.04;0.99;-0.14;0.86;-0.26;25.69;0.42;9.59
8567;-3.55;-9.02;0.68;-0.14;0.86;-0.26;25.90;-2.31;7.00
8576;-3.42;-8.81;0.47;-0.14;0.86;-0.26;25.41;-5.46;3.64
8584;-3.22;-9.06;0.57;-0.14;0.86;-0.26;21.84;-7.63;0.35
8593;-3.45;-9.08;0.58;-0.14;0.86;-0.26;17.57;-6.09;-2.10
8602;-3.68;-9.40;0.64;-0.13;0.86;-0.25;10.01;-2.73;-3.08
8611;-3.60;-9.55;0.55;-0.13;0.86;-0.25;2.10;4.34;-3.01
8620;-3.84;-9.71;0.58;-0.13;0.86;-0.25;-6.37;8.26;-2.45
8629;-3.85;-9.87;0.57;-0.14;0.86;-0.24;-8.89;7.63;-1.05
8637;-4.02;-9.96;0.62;-0.14;0.86;-0.24;-6.93;2.94;-0.07
8646;-3.94;-9.88;0.68;-0.14;0.86;-0.24;0.56;-2.45;0.49
8655;-4.05;-9.73;0.74;-0.14;0.86;-0.24;5.60;-6.79;0.28
8664;-3.92;-9.75;0.57;-0.14;0.86;-0.24;6.30;-11.06;-0.98
8673;-3.84;-9.63;0.59;-0.14;0.86;-0.24;4.20;-13.37;-2.94
8682;-3.63;-9.76;0.78;-0.14;0.87;-0.25;-1.19;-12.18;-3.71
8690;-3.36;-9.58;0.83;-0.14;0.87;-0.25;-9.24;-8.75;-4.55
8699;-3.26;-9.68;1.18;-0.14;0.86;-0.24;-15.12;-5.32;-5.04
8708;-3.37;-9.55;1.19;-0.13;0.86;-0.24;-15.19;-3.64;-5.04
8717;-3.32;-9.27;1.46;-0.13;0.86;-0.24;-10.36;-2.38;-4.83
8726;-3.37;-9.25;1.37;-0.14;0.86;-0.24;-5.18;-0.56;-5.04
8735;-3.41;-9.17;1.33;-0.14;0.86;-0.24;-3.36;0.07;-4.90
8743;-3.41;-9.28;1.18;-0.14;0.86;-0.24;-3.85;0.56;-4.62
8752;-3.45;-9.22;1.00;-0.15;0.87;-0.26;-4.83;-0.91;-5.04
8761;-3.42;-9.26;1.01;-0.15;0.87;-0.26;-5.32;-2.38;-5.46
8770;-3.47;-9.35;1.09;-0.15;0.87;-0.26;-4.27;-3.43;-6.58
8779;-3.46;-9.30;0.99;-0.15;0.86;-0.25;-3.50;-4.62;-8.54
8788;-3.47;-9.25;1.02;-0.15;0.86;-0.25;-5.11;-4.76;-8.82
8796;-3.60;-9.38;1.11;-0.15;0.86;-0.25;-6.23;-3.99;-9.52
8805;-3.66;-9.44;1.23;-0.16;0.87;-0.26;-5.74;-3.01;-9.73
8814;-3.60;-9.37;1.45;-0.16;0.87;-0.26;-3.43;-1.40;-8.82
8823;-3.75;-9.40;1.29;-0.16;0.87;-0.26;-1.96;0.91;-7.00
8832;-3.77;-9.39;1.28;-0.15;0.86;-0.24;-0.28;2.87;-5.74
8841;-3.88;-9.44;0.98;-0.15;0.86;-0.24;-0.42;2.94;-4.90
8850;-3.87;-9.36;0.94;-0.15;0.86;-0.24;-0.42;1.82;-4.69
8858;-3.76;-9.50;0.93;-0.16;0.87;-0.25;0.70;-0.63;-3.92
8867;-3.90;-9.58;0.95;-0.16;0.87;-0.25;3.64;-3.15;-2.94
8876;-3.83;-9.42;0.99;-0.16;0.87;-0.25;7.42;-6.16;-1.40
8885;-3.60;-9.27;1.05;-0.16;0.86;-0.25;9.24;-7.49;-0.21
8894;-3.50;-8.97;0.99;-0.16;0.86;-0.25;9.45;-5.25;0.35
8903;-3.52;-8.92;0.78;-0.16;0.86;-0.25;6.30;-2.38;-0.35
8911;-3.67;-9.15;0.75;-0.15;0.86;-0.23;0.49;2.10;-0.63
8920;-3.55;-9.28;0.62;-0.15;0.86;-0.23;-4.83;4.69;-0.35
8929;-3.79;-9.46;0.81;-0.15;0.86;-0.23;-5.11;3.85;0.56
8938;-3.76;-9.55;1.04;-0.15;0.86;-0.25;-2.38;1.40;2.38
8947;-3.68;-9.55;1.05;-0.15;0.86;-0.25;1.89;-0.21;4.90
8955;-3.75;-9.45;1.08;-0.15;0.86;-0.25;5.04;-0.91;6.02
8964;-3.75;-9.28;0.99;-0.13;0.87;-0.25;6.02;-0.35;7.35
8973;-3.61;-9.32;0.96;-0.13;0.87;-0.25;6.16;-0.63;6.65
8982;-3.63;-9.27;0.84;-0.14;0.86;-0.24;5.95;-1.68;5.60
8991;-3.67;-11.02;0.85;-0.14;0.86;-0.24;5.04;-2.87;4.90
9000;-3.47;-9.02;0.63;-0.14;0.86;-0.24;3.15;-4.48;3.64
9008;-3.47;-8.87;0.83;-0.15;0.88;-0.26;1.68;-5.74;1.19
9017;-3.57;-8.78;0.99;-0.15;0.88;-0.26;-0.42;-5.32;-0.84
9026;-3.75;-8.98;1.00;-0.15;0.88;-0.26;-1.19;-3.22;-1.75
9035;-3.98;-9.17;1.13;-0.15;0.86;-0.24;-1.05;-0.42;-2.59
9044;-4.00;-9.52;0.97;-0.15;0.86;-0.24;-0.56;0.70;-2.66
9052;-4.05;-9.62;1.00;-0.15;0.86;-0.24;0.42;0.14;-2.66
9061;-4.11;-9.68;0.83;-0.15;0.87;-0.25;-0.77;-2.45;-2.45
9070;-4.08;-9.46;1.05;-0.15;0.87;-0.25;-2.31;-3.29;-1.96
9079;-4.02;-9.41;1.12;-0.15;0.87;-0.25;-4.06;-3.29;-3.22
9088;-3.85;-9.22;0.95;-0.15;0.87;-0.25;-4.83;-3.71;-4.62
9097;-3.73;-9.25;1.06;-0.15;0.87;-0.25;-4.90;-4.20;-5.25
9106;-3.87;-9.27;1.06;-0.15;0.87;-0.25;-5.53;-4.90;-7.07
9114;-3.93;-9.48;1.19;-0.15;0.87;-0.25;-5.74;-4.34;-6.93
9123;-3.70;-9.57;1.24;-0.15;0.87;-0.25;-7.28;-1.40;-6.09
9132;-3.79;-9.55;1.34;-0.15;0.87;-0.25;-7.42;1.19;-4.76
9141;-3.85;-9.50;1.36;-0.15;0.86;-0.25;-4.76;1.89;-3.64
9150;-3.93;-9.33;1.16;-0.15;0.86;-0.25;-0.49;2.38;-2.59
9159;-3.77;-9.15;1.03;-0.15;0.86;-0.25;1.47;0.21;-2.52
9167;-3.68;-8.99;0.78;-0.16;0.86;-0.25;2.66;-1.89;-3.36
9176;-3.93;-8.92;0.84;-0.16;0.86;-0.25;3.22;-4.20;-4.83
9185;-3.58;-9.02;0.79;-0.16;0.86;-0.25;3.99;-6.30;-6.51
9194;-3.59;-9.14;0.82;-0.15;0.86;-0.25;5.67;-7.56;-8.26
9203;-3.67;-9.11;0.86;-0.15;0.86;-0.25;6.79;-9.59;-10.08
9212;-3.71;-9.16;0.99;-0.15;0.86;-0.25;5.53;-9.03;-11.62
9220;-3.95;-9.43;0.93;-0.15;0.86;-0.26;1.89;-5.60;-10.43
9229;-3.85;-9.71;1.18;-0.15;0.86;-0.26;-3.99;0.56;-6.65
9238;-3.98;-9.73;1.30;-0.15;0.86;-0.26;-7.56;4.48;-3.85
9247;-4.01;-9.79;1.18;-0.16;0.86;-0.27;-4.27;4.13;-1.40
9256;-3.85;-9.58;1.22;-0.16;0.86;-0.27;2.31;0.98;1.89
9264;-3.60;-9.33;1.13;-0.16;0.86;-0.25;9.38;-1.26;3.64
9273;-3.37;-11.02;1.13;-0.16;0.86;-0.25;10.29;-0.14;4.62
9282;-3.18;-9.02;0.80;-0.16;0.86;-0.25;7.42;2.03;3.99
9291;-3.12;-9.03;0.80;-0.15;0.86;-0.25;3.36;3.36;2.59
9299;-3.07;-9.27;0.83;-0.15;0.86;-0.25;-0.91;2.80;1.61
9308;-3.07;-9.33;0.95;-0.15;0.86;-0.25;-0.98;2.31;2.45
9317;-3.29;-9.43;1.13;-0.15;0.87;-0.26;0.98;1.82;4.06
9326;-3.37;-9.60;1.13;-0.15;0.87;-0.26;5.04;1.33;5.39
9335;-3.28;-9.74;1.04;-0.15;0.87;-0.26;8.61;0.77;8.40
9344;-3.22;-9.60;0.97;-0.15;0.87;-0.24;10.64;1.68;11.69
9352;-2.94;-9.50;0.93;-0.15;0.87;-0.24;10.99;2.66;14.07
9361;-2.98;-9.40;0.78;-0.15;0.87;-0.24;10.36;3.43;13.65
9370;-2.99;-9.20;0.60;-0.15;0.87;-0.24;8.89;2.52;11.13
9379;-3.01;-9.40;0.55;-0.15;0.87;-0.24;6.65;-0.35;7.98
9388;-2.99;-9.60;0.57;-0.15;0.87;-0.24;4.34;-2.38;6.79
9396;-3.08;-9.66;0.73;-0.15;0.86;-0.26;1.40;-3.99;6.02
9405;-2.99;-9.97;0.78;-0.15;0.86;-0.26;-1.19;-4.62;5.04
9414;-2.94;-9.83;1.19;-0.15;0.86;-0.26;-1.40;-4.41;6.44
9423;-2.89;-9.70;1.18;-0.14;0.87;-0.25;1.82;-3.15;7.84
9432;-2.89;-9.55;1.08;-0.14;0.87;-0.25;4.83;-1.61;8.05
9440;-2.98;-9.62;1.02;-0.14;0.87;-0.25;7.35;-0.63;6.79
9449;-3.05;-9.45;0.89;-0.15;0.87;-0.25;7.84;0.28;6.58
9458;-3.10;-9.41;0.60;-0.15;0.87;-0.25;6.51;-0.14;6.02
9467;-3.17;-9.35;0.54;-0.15;0.87;-0.25;5.11;-0.84;3.78
9476;-3.31;-9.41;0.37;-0.15;0.87;-0.25;1.47;-2.59;1.54
9485;-3.46;-9.51;0.50;-0.15;0.87;-0.25;-3.64;-3.57;-0.14
9493;-3.51;-9.58;0.61;-0.15;0.87;-0.25;-7.07;-3.92;-1.54
9502;-3.60;-9.81;0.72;-0.15;0.87;-0.24;-9.94;-2.94;-1.54
9511;-3.59;-10.14;0.95;-0.15;0.87;-0.24;-10.36;-2.38;0.00
9520;-3.63;-10.10;0.96;-0.15;0.87;-0.24;-8.61;-0.98;3.01
9529;-3.44;-10.15;1.11;-0.15;0.87;-0.24;-5.11;-0.70;6.30
9537;-3.49;-9.96;0.88;-0.15;0.87;-0.24;0.70;-1.40;8.82
9546;-3.48;-9.77;0.84;-0.01;0.86;-0.24;4.27;-1.68;10.08
9555;-3.33;-9.60;0.74;-0.15;0.86;-0.24;4.48;-1.68;10.92
9564;-3.35;-9.48;0.47;-0.15;0.86;-0.24;1.82;-3.22;10.22
9573;-3.27;-9.36;0.62;-0.14;0.87;-0.24;-2.59;-3.92;8.68
9581;-3.12;-9.55;0.61;-0.14;0.87;-0.24;-6.51;-3.50;7.28
9590;-3.22;-9.85;0.67;-0.14;0.87;-0.24;-8.40;-3.50;7.14
9599;-3.02;-10.09;0.75;-0.15;0.87;-0.25;-8.61;-3.85;8.68
9608;-3.01;-10.15;0.75;-0.15;0.87;-0.25;-8.33;-3.08;10.57
9617;-2.84;-10.17;1.16;-0.15;0.87;-0.25;-8.96;-2.45;12.67
9626;-2.86;-10.16;1.12;-0.14;0.87;-0.24;-6.30;-1.75;15.82
9634;-2.90;-9.71;1.12;-0.14;0.87;-0.24;-1.19;-1.54;17.22
9643;-2.78;-9.50;0.98;-0.14;0.87;-0.24;4.27;-3.22;16.52
9652;-2.80;-9.16;0.76;-0.13;0.87;-0.23;6.23;-3.43;16.24
9661;-2.85;-9.00;0.69;-0.13;0.87;-0.23;3.50;-4.48;13.37
9670;-2.71;-9.08;0.57;-0.13;0.87;-0.23;-1.12;-4.48;9.87
9679;-2.94;-9.20;0.55;-0.14;0.86;-0.25;-6.51;-4.62;7.98
9687;-2.87;-9.35;0.69;-0.14;0.86;-0.25;-9.80;-5.18;5.25
9696;-3.00;-9.53;1.01;-0.14;0.86;-0.25;-11.62;-5.67;4.55
9705;-3.04;-9.78;1.27;-0.13;0.86;-0.24;-11.76;-3.57;6.58
9714;-3.04;-9.78;1.27;-0.13;0.86;-0.24;-11.55;0.28;10.29
9723;-3.12;-9.62;1.34;-0.13;0.86;-0.24;-9.38;1.40;12.04
9732;-3.31;-9.53;1.20;-0.14;0.87;-0.24;-3.71;0.63;13.65
9740;-3.57;-9.36;1.20;-0.14;0.87;-0.24;2.38;-1.05;13.72
9749;-3.49;-9.29;0.93;-0.14;0.87;-0.24;4.20;-1.82;12.95
9758;-3.40;-9.21;0.88;-0.13;0.87;-0.24;1.68;-1.26;12.67
9767;-3.47;-9.14;0.75;-0.13;0.87;-0.24;-1.47;-1.68;11.55
9776;-3.35;-9.22;0.85;-0.13;0.87;-0.24;-5.18;-2.10;9.52
9784;-3.22;-9.22;0.80;-0.13;0.87;-0.24;-7.42;-2.66;8.40
9793;-3.18;-9.12;0.87;-0.13;0.87;-0.24;-8.61;-3.15;6.86
9802;-3.11;-9.10;0.98;-0.13;0.87;-0.24;-7.77;-4.34;5.39
9811;-3.42;-9.09;1.26;-0.13;0.87;-0.25;-4.83;-4.55;5.39
9820;-3.43;-9.10;1.29;-0.13;0.87;-0.25;-2.94;-2.45;6.72
9828;-3.43;-8.99;1.19;-0.13;0.87;-0.24;-2.10;2.59;7.91
9837;-3.41;-9.16;0.99;-0.14;0.87;-0.24;-3.92;4.90;7.00
9846;-3.41;-9.25;0.78;-0.14;0.87;-0.24;-6.72;5.95;6.23
9855;-3.25;-9.57;0.86;-0.13;0.87;-0.25;-9.03;4.55;5.32
9864;-3.17;-9.71;1.03;-0.13;0.87;-0.25;-9.87;2.52;5.11
9872;-2.87;-9.78;1.06;-0.13;0.87;-0.25;-8.12;-0.14;4.90
9881;-3.02;-9.63;1.08;-0.12;0.86;-0.25;-4.69;-2.38;4.20
9890;-3.15;-9.76;1.09;-0.12;0.86;-0.25;-3.22;-5.32;3.15
9899;-2.84;-9.66;1.10;-0.12;0.86;-0.25;-2.73;-6.23;2.73
9908;-3.01;-9.64;1.16;-0.13;0.86;-0.23;-2.73;-6.16;2.38
9917;-2.99;-9.73;1.29;-0.13;0.86;-0.23;-2.80;-4.48;3.43
9925;-2.92;-9.71;1.43;-0.13;0.86;-0.23;-0.70;-0.63;5.74
9934;-2.78;-9.63;1.41;-0.13;0.86;-0.23;1.54;1.89;6.93
9943;-2.43;-9.71;1.21;-0.13;0.86;-0.23;4.62;2.17;7.91
9952;-2.70;-9.55;1.16;-0.13;0.86;-0.23;7.07;1.75;8.26
9961;-2.53;-9.43;1.12;-0.12;0.86;-0.24;7.77;0.63;7.98
9969;-2.57;-9.52;0.98;-0.12;0.86;-0.24;6.09;0.56;6.58
9978;-2.63;-9.35;0.85;-0.12;0.86;-0.24;4.69;0.63;5.81
9987;-2.63;-9.30;0.62;-0.13;0.86;-0.25;3.08;-0.91;3.43
9996;-2.63;-9.32;0.52;-0.13;0.86;-0.25;0.98;-3.08;1.68
10005;-2.76;-9.20;0.63;-0.13;0.86;-0.25;-0.56;-5.04;0.35
10013;-2.76;-9.43;0.84;-0.13;0.88;-0.25;-1.96;-5.95;-0.49
10022;-2.66;-9.73;1.28;-0.13;0.88;-0.25;-2.38;-4.69;1.40
10031;-2.70;-9.76;1.60;-0.13;0.88;-0.25;-1.61;-0.70;5.88
10040;-2.70;-9.71;1.54;-0.14;0.86;-0.24;2.87;3.57;8.75
10049;-2.72;-9.66;1.26;-0.14;0.86;-0.24;8.68;5.11;10.92
10057;-3.04;-9.49;1.00;-0.14;0.86;-0.24;15.05;4.97;12.60
10066;-3.07;-9.20;0.54;-0.12;0.87;-0.23;19.04;4.41;12.95
10075;-3.14;-8.94;0.31;-0.12;0.87;-0.23;18.62;3.08;11.27
10084;-2.99;-8.82;0.08;-0.12;0.87;-0.23;13.72;2.24;7.98
10093;-3.05;-8.92;0.15;-0.12;0.87;-0.24;7.49;-0.14;4.20
10101;-2.94;-9.04;0.08;-0.12;0.87;-0.24;2.17;-4.90;0.84
10110;-2.99;-9.03;0.11;-0.12;0.87;-0.24;-1.40;-10.71;-2.38
10119;-3.03;-9.14;0.45;-0.12;0.87;-0.23;-3.99;-15.68;-5.18
10128;-3.03;-9.36;0.75;-0.12;0.87;-0.23;-7.70;-15.40;-7.00
10137;-3.21;-9.77;1.33;-0.12;0.88;-0.23;-11.69;-5.60;-4.97
10145;-3.16;-9.83;1.43;-0.12;0.88;-0.23;-12.18;4.48;-1.12
10154;-3.50;-9.68;1.40;-0.12;0.88;-0.23;-5.11;10.92;1.19
10163;-3.52;-9.64;0.98;-0.13;0.87;-0.25;5.46;10.08;1.68
10172;-3.86;-9.60;0.62;-0.13;0.87;-0.25;13.72;6.58;3.29
10181;-3.78;-9.60;0.47;-0.13;0.87;-0.25;14.98;2.73;3.85
10189;-3.70;-9.73;0.42;-0.13;0.87;-0.23;10.43;1.40;1.89
10198;-3.44;-9.69;0.47;-0.13;0.87;-0.23;1.33;2.45;-0.49
10207;-3.41;-9.78;0.54;-0.13;0.87;-0.23;-6.09;2.45;-2.94
10216;-3.27;-9.88;0.60;-0.12;0.87;-0.24;-10.01;1.54;-4.55
10225;-3.26;-9.84;0.88;-0.12;0.87;-0.24;-10.50;-1.47;-5.18
10234;-3.45;-9.95;1.03;-0.12;0.87;-0.24;-7.63;-2.24;-4.76
10243;-3.31;-10.01;1.18;-0.13;0.88;-0.24;-4.13;-1.68;-3.57
10251;-3.21;-9.81;1.18;-0.13;0.88;-0.24;-2.17;0.98;-2.38
10260;-3.40;-9.81;1.19;-0.13;0.88;-0.24;-0.91;3.15;-1.19
10269;-3.43;-9.76;0.98;-0.12;0.87;-0.23;0.84;4.97;-0.56
10278;-3.57;-9.76;0.89;-0.12;0.87;-0.23;2.17;5.04;0.35
10287;-3.45;-9.79;0.81;-0.12;0.87;-0.23;2.38;4.34;0.56
10295;-3.45;-9.84;0.75;-0.12;0.87;-0.24;3.15;4.41;0.98
10304;-3.39;-9.78;0.70;-0.12;0.87;-0.24;1.61;4.55;0.63
10313;-3.29;-9.81;0.48;-0.12;0.87;-0.24;-1.61;3.15;-0.14
10322;-3.30;-9.66;0.66;-0.12;0.87;-0.23;-4.41;2.80;-0.63
10331;-3.35;-9.60;0.63;-0.12;0.87;-0.23;-7.21;1.40;-1.61
10339;-3.19;-9.76;0.89;-0.12;0.87;-0.23;-9.24;1.89;-1.26
10348;-3.15;-9.71;1.06;-0.13;0.87;-0.25;-9.10;3.92;0.14
10357;-3.16;-9.58;1.31;-0.13;0.87;-0.25;-6.02;6.44;1.89
10366;-3.07;-9.76;1.08;-0.13;0.87;-0.25;-0.77;7.98;3.22
10375;-3.17;-9.68;1.05;-0.12;0.87;-0.26;2.31;9.10;4.62
10383;-3.11;-9.63;0.83;-0.12;0.87;-0.26;2.24;9.66;4.20
10392;-3.24;-9.51;0.76;-0.12;0.87;-0.26;0.00;8.54;2.73
10401;-3.22;-9.45;0.86;-0.12;0.86;-0.24;-2.10;6.30;2.03
10410;-3.24;-9.46;0.92;-0.12;0.86;-0.24;-2.80;5.25;1.75
10418;-3.26;-9.41;0.83;-0.12;0.86;-0.24;-2.45;4.13;0.35
10427;-3.26;-9.42;0.93;-0.12;0.87;-0.25;-2.80;2.80;-0.42
10436;-3.28;-9.41;0.90;-0.12;0.87;-0.25;-4.41;1.82;-1.61
10445;-3.20;-9.42;0.88;-0.12;0.87;-0.24;-6.23;2.24;-3.01
10454;-3.14;-9.54;1.11;-0.12;0.87;-0.24;-9.03;3.15;-4.62
10463;-3.10;-9.66;1.13;-0.12;0.87;-0.24;-11.55;7.42;-4.97
10472;-3.24;-9.59;1.18;-0.11;0.87;-0.25;-11.62;11.06;-5.11
10480;-3.29;-9.58;1.20;-0.11;0.87;-0.25;-9.87;11.76;-5.39
10489;-3.35;-9.67;1.09;-0.11;0.87;-0.25;-4.62;9.80;-4.97
10498;-3.41;-9.54;1.14;-0.11;0.87;-0.26;-1.40;8.54;-3.99
10507;-3.40;-9.60;0.97;-0.11;0.87;-0.26;-0.42;6.51;-3.50
10516;-3.40;-9.59;0.88;-0.11;0.87;-0.26;-0.49;4.34;-3.29
10525;-3.27;-9.52;0.83;-0.13;0.87;-0.26;-1.61;1.89;-3.85
10533;-3.09;-9.32;0.80;-0.13;0.87;-0.26;-4.27;0.42;-5.25
10542;-3.24;-9.50;0.88;-0.13;0.87;-0.26;-6.86;0.21;-6.93
10551;-3.17;-9.71;1.01;-0.11;0.87;-0.25;-11.34;1.61;-7.56
10560;-3.33;-9.72;1.12;-0.11;0.87;-0.25;-12.88;4.13;-6.37
10569;-3.39;-9.81;1.34;-0.11;0.87;-0.25;-11.41;5.39;-4.55
10577;-3.24;-9.75;1.38;-0.12;0.87;-0.26;-7.35;4.06;-2.38
10586;-3.17;-9.60;1.44;-0.12;0.87;-0.26;-1.54;1.96;0.77
10595;-2.99;-9.35;1.62;-0.12;0.87;-0.26;4.41;1.96;2.80
10604;-2.90;-9.10;1.46;-0.12;0.85;-0.24;9.52;2.87;2.94
10613;-2.92;-8.97;1.24;-0.12;0.85;-0.24;11.62;6.72;1.61
10621;-3.04;-8.97;0.78;-0.12;0.85;-0.24;9.45;10.57;-0.14
10630;-3.04;-8.99;0.38;-0.12;0.87;-0.24;4.83;12.88;-2.52
10639;-3.14;-9.00;0.30;-0.12;0.87;-0.24;-17.64;12.04;-4.27
10648;-3.09;-9.06;0.13;-0.12;0.87;-0.24;-3.64;9.52;-5.04
10657;-3.24;-9.03;0.26;-0.12;0.87;-0.25;-7.07;4.90;-7.28
10666;-3.05;-9.07;0.42;-0.12;0.87;-0.25;-9.45;0.56;-7.98
10674;-3.08;-7.36;0.67;-0.12;0.87;-0.25;-9.45;-1.47;-9.03
10683;-2.99;-9.11;0.61;-0.12;0.86;-0.24;-9.24;-3.15;-9.38
10692;-3.11;-9.24;0.90;-0.12;0.86;-0.24;-8.82;-3.71;-9.80
10701;-3.25;-9.12;0.93;-0.12;0.86;-0.26;-8.19;-3.36;-9.59
10710;-3.27;-9.22;0.86;-0.12;0.86;-0.26;-8.54;-2.03;-9.31
10719;-3.14;-9.29;0.94;-0.12;0.86;-0.26;-10.08;0.91;-9.66
10727;-3.24;-9.32;0.91;-0.13;0.87;-0.25;-12.60;3.64;-10.85
10736;-3.27;-9.48;0.94;-0.13;0.87;-0.25;-14.84;5.25;-11.55
10745;-3.30;-9.60;1.16;-0.13;0.87;-0.25;-15.75;6.16;-10.99
10754;-3.40;-9.86;1.24;-0.13;0.86;-0.26;-14.91;5.53;-9.52
10763;-3.45;-9.91;1.37;-0.13;0.86;-0.26;-10.85;4.62;-6.79
10772;-3.50;-9.91;1.30;-0.13;0.86;-0.26;-7.42;1.82;-4.97
10781;-3.42;-9.82;1.20;-0.13;0.86;-0.26;-3.85;0.84;-3.15
10789;-3.42;-9.73;1.23;-0.13;0.86;-0.26;-2.45;-0.63;-2.03
10798;-3.31;-9.69;1.12;-0.13;0.86;-0.26;-1.40;-1.19;-1.68
10807;-3.52;-9.63;1.18;-0.13;0.86;-0.24;-0.56;-1.26;-1.54
10816;-3.61;-9.57;1.14;-0.13;0.86;-0.24;-0.63;-2.45;-1.54
10825;-3.64;-9.56;1.04;-0.13;0.86;-0.24;-0.70;-3.50;-1.89
10833;-3.59;-9.49;1.16;-0.12;0.87;-0.26;-2.80;-4.48;-1.82
10842;-3.68;-9.47;1.26;-0.12;0.87;-0.26;-4.76;-4.41;-1.68
10851;-3.54;-9.35;1.41;-0.12;0.87;-0.26;-6.23;-4.76;-0.91
10860;-3.38;-9.41;1.58;-0.14;0.86;-0.27;-4.48;-4.83;0.49
10869;-3.24;-9.33;1.77;-0.14;0.86;-0.27;-1.68;-4.48;2.10
10878;-3.22;-9.31;1.97;-0.14;0.86;-0.27;1.47;-2.87;3.43
10886;-3.19;-9.28;1.79;-0.13;0.85;-0.25;3.92;-1.61;3.43
10895;-3.21;-9.13;1.77;-0.13;0.85;-0.25;5.46;0.07;2.94
10904;-3.42;-9.07;1.44;-0.13;0.85;-0.25;4.69;2.45;1.82
10913;-3.42;-9.08;1.39;-0.13;0.86;-0.26;2.52;4.90;-0.28
10922;-3.70;-9.04;1.21;-0.13;0.86;-0.26;-0.91;6.02;-2.24
10931;-3.70;-9.17;1.11;-0.13;0.86;-0.26;-4.83;5.18;-3.15
10939;-3.65;-9.26;1.36;-0.12;0.86;-0.26;-5.18;2.80;-3.92
10948;-3.71;-9.17;1.55;-0.12;0.86;-0.26;-3.85;-1.26;-4.27
10957;-3.63;-10.97;1.65;-0.12;0.86;-0.26;-1.89;-3.57;-4.41
10966;-3.50;-9.27;1.81;-0.13;0.86;-0.25;-0.42;-4.34;-4.90
10975;-3.57;-9.26;1.95;-0.13;0.86;-0.25;0.98;-1.96;-4.27
10983;-3.69;-9.25;2.07;-0.13;0.86;-0.26;0.35;0.98;-3.92
10992;-3.65;-9.16;2.07;-0.13;0.86;-0.26;-0.14;2.66;-3.29
11001;-3.12;-8.99;1.97;-0.13;0.86;-0.26;1.61;3.43;-3.15
11010;-3.73;-8.79;2.17;-0.12;0.86;-0.26;5.53;5.60;-2.31
11019;-3.32;-8.63;2.14;-0.12;0.86;-0.26;9.38;8.40;-4.83
11027;-3.72;-8.50;1.65;-0.12;0.86;-0.26;9.45;13.79;-7.49
11036;-3.72;-8.94;1.36;-0.13;0.86;-0.26;3.85;18.90;-9.87
11045;-3.82;-9.25;1.21;-0.13;0.86;-0.26;-1.96;21.00;-12.81
11054;-4.13;-9.40;0.97;-0.13;0.86;-0.26;-4.69;20.23;-12.67
11063;-4.24;-9.59;0.85;-0.13;0.87;-0.26;-2.59;16.17;-11.69
11072;-4.10;-9.61;0.75;-0.13;0.87;-0.26;1.33;9.52;-8.12
11080;-4.05;-9.53;0.77;-0.13;0.87;-0.26;5.88;2.45;-5.04
11089;-4.04;-9.43;0.80;-0.13;0.86;-0.25;9.73;-3.85;-3.85
11098;-3.75;-9.13;1.11;-0.13;0.86;-0.25;10.01;-8.26;-3.29
11107;-3.55;-9.07;1.39;-0.13;0.86;-0.25;7.91;-8.05;-3.15
11116;-3.50;-9.16;1.61;-0.12;0.86;-0.25;4.69;-2.03;-3.50
11125;-3.59;-9.15;1.74;-0.12;0.86;-0.25;0.77;5.67;-4.83
11133;-3.57;-9.12;1.85;-0.12;0.86;-0.25;1.05;10.15;-4.06
11142;-3.40;-9.07;1.66;-0.13;0.86;-0.25;3.92;14.91;-4.90
11151;-3.35;-8.92;1.59;-0.13;0.86;-0.25;4.34;19.04;-6.93
11160;-3.28;-8.82;1.23;-0.13;0.86;-0.25;1.47;22.26;-10.22
11169;-3.65;-9.05;1.15;-0.13;0.87;-0.24;-3.92;26.60;-14.42
11178;-3.93;-9.09;0.86;-0.13;0.87;-0.24;-9.94;26.46;-15.82
11186;-4.00;-9.35;0.93;-0.13;0.87;-0.24;-9.73;21.77;-14.98
11195;-4.15;-9.62;0.98;-0.13;0.86;-0.26;-5.11;15.19;-13.93
11204;-4.26;-9.74;1.24;-0.13;0.86;-0.26;-1.75;10.92;-11.76
11213;-4.31;-9.61;1.36;-0.13;0.86;-0.26;-1.75;8.61;-9.52
11222;-4.15;-9.56;1.62;-0.13;0.86;-0.25;-2.31;6.51;-8.12
11230;-4.05;-9.54;1.88;-0.13;0.86;-0.25;-1.26;8.61;-6.23
11239;-3.94;-9.49;1.93;-0.13;0.86;-0.25;0.07;11.41;-5.53
11248;-4.05;-9.38;1.87;-0.14;0.87;-0.26;1.68;13.86;-4.69
11257;-3.79;-9.25;1.65;-0.14;0.87;-0.26;3.85;15.12;-3.57
11266;-3.78;-9.14;1.51;-0.14;0.87;-0.25;6.23;15.40;-3.71
11275;-3.89;-9.05;1.36;-0.13;0.86;-0.25;5.81;14.77;-4.62
11283;-3.81;-9.19;1.26;-0.13;0.86;-0.25;2.87;14.98;-5.32
11292;-4.09;-9.20;1.00;-0.14;0.86;-0.26;0.77;13.72;-5.25
11301;-4.08;-11.03;1.00;-0.14;0.86;-0.26;-0.07;9.59;-4.55
11310;-3.94;-9.10;1.18;-0.14;0.86;-0.26;2.31;3.99;-3.22
11319;-4.01;-8.99;1.46;-0.13;0.86;-0.26;4.55;-0.21;-2.94
11327;-3.87;-8.92;1.69;-0.13;0.86;-0.26;5.11;-0.77;-2.80
11336;-3.74;-8.97;1.94;-0.13;0.86;-0.26;5.39;2.10;-3.99
11345;-3.57;-9.11;1.92;-0.13;0.86;-0.25;5.18;8.05;-5.04
11354;-3.50;-9.04;1.76;-0.13;0.86;-0.25;5.32;13.16;-5.25
11363;-3.49;-10.98;1.50;-0.13;0.86;-0.25;6.37;16.31;-5.95
11372;-3.64;-9.22;0.95;-0.13;0.86;-0.25;8.40;16.73;-5.18
11380;-3.76;-9.30;0.88;-0.13;0.86;-0.25;8.40;14.91;-5.04
11389;-3.88;-9.02;0.85;-0.13;0.86;-0.25;6.93;11.27;-4.83
11398;-3.93;-9.07;1.08;-0.13;0.87;-0.26;6.23;5.67;-5.04
11407;-3.74;-9.07;1.36;-0.13;0.87;-0.26;6.72;3.36;-5.88
11416;-3.70;-9.08;1.50;-0.13;0.87;-0.26;7.70;3.15;-5.88
11424;-3.66;-10.92;1.53;-0.14;0.87;-0.25;10.64;5.46;-5.81
11433;-3.73;-9.27;1.47;-0.14;0.87;-0.25;12.11;9.59;-7.49
11442;-3.81;-9.22;0.97;-0.14;0.87;-0.25;9.66;13.37;-8.12
11451;-3.85;-9.35;0.93;-0.14;0.86;-0.25;7.14;13.58;-8.68
11460;-4.11;-9.56;0.90;-0.14;0.86;-0.25;6.86;11.34;-8.33
11469;-4.24;-9.73;0.94;-0.14;0.86;-0.25;7.49;9.03;-7.14
11478;-4.22;-10.06;0.83;-0.13;0.86;-0.25;8.82;7.21;-4.76
11486;-4.30;-10.21;0.70;-0.13;0.86;-0.25;11.48;4.97;0.21
11495;-4.23;-10.14;0.66;-0.13;0.86;-0.25;15.33;0.70;5.18
11504;-3.91;-9.94;0.57;-0.13;0.87;-0.25;20.37;-3.36;9.03
11513;-3.59;-9.55;0.62;-0.13;0.87;-0.25;22.47;-5.04;10.29
11522;-3.49;-9.21;0.55;-0.13;0.87;-0.25;18.62;-4.83;8.54
11530;-3.42;-9.11;0.37;-0.13;0.87;-0.24;8.40;-2.45;3.71
11539;-3.52;-9.10;0.42;-0.13;0.87;-0.24;0.77;0.28;-0.56
11548;-3.45;-9.38;0.60;-0.13;0.88;-0.25;-3.71;1.82;-4.13
11557;-3.82;-9.51;0.65;-0.13;0.88;-0.25;-5.53;1.19;-4.83
11566;-3.91;-9.76;0.74;-0.13;0.88;-0.25;-6.09;-0.49;-2.80
11575;-4.07;-9.61;0.82;-0.13;0.87;-0.23;-4.20;-2.10;1.47
11583;-4.13;-9.16;1.11;-0.13;0.87;-0.23;-0.14;-5.53;3.92
11592;-3.95;-8.89;1.20;-0.13;0.87;-0.23;2.66;-8.33;4.06
11601;-3.60;-8.71;1.42;-0.13;0.87;-0.24;3.08;-6.65;2.87
11610;-3.32;-8.74;1.44;-0.13;0.87;-0.24;0.84;-3.64;-0.14
11618;-3.62;-8.82;1.39;-0.13;0.87;-0.24;-2.45;0.56;-2.80
11627;-3.66;-8.77;1.22;-0.13;0.87;-0.24;-4.62;2.17;-4.69
11636;-3.74;-9.04;1.24;-0.13;0.87;-0.24;-6.23;2.31;-5.74
11645;-3.88;-9.02;1.00;-0.13;0.87;-0.24;-7.07;0.63;-5.74
11654;-4.05;-9.07;1.06;-0.13;0.87;-0.24;-6.09;-2.03;-5.39
11663;-4.10;-8.95;1.32;-0.13;0.87;-0.24;-4.69;-4.06;-4.83
11671;-4.08;-9.08;1.54;-0.13;0.87;-0.24;-2.66;-4.06;-2.66
11680;-4.01;-8.92;1.57;-0.14;0.87;-0.24;0.63;-3.57;-0.35
11689;-4.11;-9.02;1.68;-0.14;0.87;-0.24;3.22;-2.66;0.49
11698;-3.90;-9.34;1.45;-0.14;0.87;-0.24;4.41;-0.63;0.14
11707;-3.93;-9.43;1.13;-0.14;0.87;-0.23;3.50;2.66;1.19
11716;-3.74;-9.34;0.86;-0.14;0.87;-0.23;2.31;3.92;1.12
11724;-3.60;-9.39;0.45;-0.14;0.87;-0.23;1.40;3.01;-0.14
11733;-3.62;-9.29;0.14;-0.13;0.87;-0.24;-2.24;1.12;-2.52
11742;-3.70;-9.24;0.29;-0.13;0.87;-0.24;-7.28;-1.61;-4.41
11751;-3.93;-9.27;0.47;-0.13;0.87;-0.24;-12.11;-4.83;-5.18
11760;-4.24;-9.28;1.00;-0.13;0.87;-0.24;-15.68;-8.68;-3.92
11769;-4.21;-9.54;1.72;-0.13;0.87;-0.24;-14.14;-10.71;-1.61
11777;-4.25;-9.49;2.02;-0.13;0.87;-0.24;-9.38;-9.87;2.66
11786;-4.08;-9.35;2.34;-0.14;0.87;-0.25;-1.82;-7.56;5.53
11795;-4.04;-9.30;2.15;-0.14;0.87;-0.25;4.34;-3.92;6.86
11804;-3.91;-9.35;1.81;-0.14;0.87;-0.25;6.37;-1.12;7.28
11813;-3.82;-9.30;1.48;-0.14;0.88;-0.24;7.21;0.91;6.09
11821;-3.70;-9.30;1.05;-0.14;0.88;-0.24;4.90;2.66;3.43
11830;-3.88;-9.32;0.78;-0.14;0.88;-0.24;0.84;3.36;1.12
11839;-4.03;-9.35;0.73;-0.13;0.87;-0.24;-2.94;1.12;-0.49
11848;-4.16;-9.51;0.66;-0.13;0.87;-0.24;-5.04;-3.08;-0.70
11857;-4.12;-9.43;1.11;-0.14;0.88;-0.25;-4.69;-6.65;1.12
11866;-4.09;-9.29;1.36;-0.14;0.88;-0.25;-2.24;-8.40;1.89
11874;-3.80;-9.25;1.55;-0.14;0.88;-0.25;-0.77;-8.40;2.17
11883;-3.91;-9.11;1.59;-0.14;0.86;-0.25;-1.05;-6.51;1.68
11892;-3.80;-9.07;1.79;-0.14;0.86;-0.25;-2.38;-4.27;0.49
11901;-3.70;-9.04;1.55;-0.14;0.86;-0.25;-3.43;-0.70;-0.35
11910;-3.95;-9.03;1.57;-0.14;0.87;-0.25;-3.99;1.61;-1.40
11919;-4.03;-9.13;1.43;-0.14;0.87;-0.25;-4.06;2.10;-2.73
11927;-4.12;-9.18;1.30;-0.14;0.87;-0.25;-3.01;2.24;-2.03
11936;-4.27;-9.47;1.31;-0.13;0.87;-0.25;-1.47;1.40;0.14
11945;-4.08;-9.51;1.03;-0.13;0.87;-0.25;0.28;0.07;1.68
11954;-4.10;-9.48;0.78;-0.13;0.87;-0.25;1.61;-2.24;3.36
11963;-3.83;-9.30;1.02;-0.14;0.86;-0.24;1.89;-3.85;4.06
11971;-3.84;-9.28;1.08;-0.14;0.86;-0.24;0.77;-3.92;3.22
11980;-3.89;-9.04;1.08;-0.14;0.86;-0.24;-3.29;-3.43;1.47
11989;-3.78;-8.96;1.36;-0.13;0.86;-0.24;-4.48;-2.24;-0.07
11998;-3.88;-9.03;1.41;-0.13;0.86;-0.24;-5.46;-1.89;-1.26
12007;-3.91;-9.14;1.43;-0.13;0.86;-0.24;-4.13;-0.42;-0.70
12016;-4.21;-9.29;1.44;-0.14;0.87;-0.25;-2.38;-0.70;1.19
12024;-3.99;-9.11;1.57;-0.14;0.87;-0.25;0.77;-2.31;3.64
12033;-3.87;-9.28;1.43;-0.14;0.87;-0.25;4.55;-2.66;5.11
12042;-3.78;-9.22;1.22;-0.14;0.86;-0.25;6.30;-1.26;6.30
12051;-3.83;-9.20;1.12;-0.14;0.86;-0.25;4.62;0.77;5.81
12060;-3.72;-9.16;0.90;-0.14;0.86;-0.25;1.96;1.61;4.97
12069;-3.60;-9.22;0.81;-0.14;0.86;-0.25;-1.26;1.33;3.01
12077;-3.80;-9.17;0.64;-0.14;0.86;-0.25;-5.25;1.40;0.84
12086;-3.91;-9.20;0.71;-0.14;0.86;-0.25;-9.03;0.00;0.21
12095;-4.04;-9.05;0.99;-0.13;0.87;-0.25;-9.59;-2.94;-0.35
12104;-4.07;-9.26;1.28;-0.13;0.87;-0.25;-8.05;-5.18;-0.84
12113;-4.15;-9.30;1.62;-0.13;0.87;-0.24;-6.16;-5.39;1.05
12122;-4.16;-9.53;1.85;-0.14;0.86;-0.24;-3.57;-4.06;3.01
12130;-3.94;-9.60;1.68;-0.14;0.86;-0.24;-1.19;-1.26;4.97
12139;-3.83;-9.71;1.36;-0.14;0.86;-0.25;0.00;1.33;6.72
12148;-3.92;-9.68;0.88;-0.14;0.86;-0.25;-0.14;3.29;8.26
12157;-3.92;-9.66;0.26;-0.14;0.86;-0.25;-1.47;4.13;9.17
12166;-3.99;-9.34;0.04;-0.14;0.86;-0.25;-3.85;0.98;9.10
12174;-3.98;-8.98;0.17;-0.14;0.86;-0.25;-6.79;-4.48;8.33
12183;-3.58;-8.77;0.44;-0.14;0.86;-0.25;-10.01;-10.43;4.55
12192;-3.62;-8.59;1.11;-0.13;0.86;-0.26;-13.23;-12.39;0.77
12201;-3.59;-8.64;3.63;-0.13;0.86;-0.26;-17.85;-10.71;-3.08
12210;-3.50;-8.89;2.27;-0.13;0.86;-0.26;-19.67;-6.37;-5.81
12219;-3.68;-9.17;2.44;-0.12;0.85;-0.25;-18.83;0.56;-6.09
12227;-3.87;-9.68;2.63;-0.12;0.85;-0.25;-17.29;4.97;-4.83
12236;-4.86;-9.99;1.92;-0.12;0.85;-0.25;-12.39;11.34;2.38
12245;-3.31;-10.12;1.18;-0.13;0.86;-0.26;-8.19;6.30;9.52
12254;-4.61;-9.80;1.45;-0.13;0.86;-0.26;1.40;6.23;13.93
12263;-3.98;-9.32;0.80;-0.13;0.86;-0.26;5.67;-1.54;13.30
12272;-3.79;-8.78;0.87;-0.13;0.86;-0.26;7.28;-5.18;15.40
12280;-3.55;-8.50;1.19;-0.13;0.86;-0.26;4.13;-7.56;11.41
12289;-3.06;-8.57;1.51;-0.13;0.86;-0.26;-0.14;-6.02;5.60
12298;-3.60;-8.82;1.87;-0.13;0.86;-0.26;-7.84;-1.61;3.15
12307;-3.44;-9.04;2.16;-0.13;0.86;-0.26;-9.45;1.40;1.40
12316;-3.89;-9.43;1.89;-0.13;0.86;-0.26;-6.51;2.52;0.77
12324;-4.16;-9.63;1.89;-0.12;0.85;-0.26;-3.99;4.83;5.32
12333;-4.24;-9.76;1.82;-0.12;0.85;-0.26;0.07;1.47;6.44
12342;-4.50;-9.27;1.95;-0.12;0.85;-0.26;3.64;-0.35;5.74
12351;-3.96;-9.35;1.95;-0.12;0.87;-0.27;7.35;-2.17;9.52
12360;-3.98;-9.25;1.80;-0.12;0.87;-0.27;9.66;-0.63;11.13
12369;-3.81;-9.09;1.69;-0.12;0.87;-0.27;9.52;2.10;10.64
12377;-3.70;-11.01;1.36;-0.12;0.86;-0.25;7.21;5.67;8.47
12386;-3.87;-9.32;0.94;-0.12;0.86;-0.25;2.38;9.38;6.51
12395;-3.85;-9.36;0.75;-0.12;0.86;-0.26;-2.03;9.45;5.39
12404;-4.00;-9.64;0.47;-0.12;0.87;-0.26;-3.50;8.12;5.25
12413;-4.17;-9.49;0.19;-0.12;0.87;-0.26;-3.64;3.50;6.72
12421;-4.44;-9.01;0.41;-0.12;0.86;-0.26;-5.18;-6.23;9.03
12430;-4.12;-8.94;1.20;-0.12;0.86;-0.26;-6.65;-18.34;9.52
12439;-3.77;-8.80;1.98;-0.12;0.86;-0.26;-5.25;-19.60;9.94
12448;-2.58;-9.04;1.75;-0.13;0.86;-0.27;-5.32;-15.75;7.35
12456;-3.51;-8.79;2.44;-0.13;0.86;-0.27;-6.16;-6.65;6.58
12465;-3.62;-9.23;2.18;-0.13;0.86;-0.27;-6.86;0.00;5.18
12474;-3.52;-9.53;1.53;-0.12;0.86;-0.26;-5.25;5.74;4.34
12483;-4.08;-9.77;1.00;-0.12;0.86;-0.26;-2.31;8.68;7.21
12492;-4.25;-9.95;0.42;-0.12;0.86;-0.26;0.56;6.23;9.45
12500;-4.62;-9.63;0.05;-0.12;0.86;-0.26;1.68;-0.49;12.60
12509;-4.74;-9.17;0.13;-0.12;0.86;-0.26;-0.56;-13.09;15.05
12518;-4.13;-9.00;0.88;-0.12;0.86;-0.26;-3.22;-28.35;14.35
12527;-3.62;-8.99;1.69;-0.13;0.87;-0.27;-3.50;-31.85;12.53
12536;-3.35;-9.07;2.23;-0.13;0.87;-0.27;-3.71;-28.91;9.73
12545;-3.18;-9.30;2.59;-0.13;0.87;-0.27;-3.36;-20.44;9.17
12554;-3.22;-9.53;2.23;-0.12;0.86;-0.26;-1.89;-11.48;10.22
12562;-3.41;-9.70;1.95;-0.12;0.86;-0.26;0.49;-5.46;10.92
12571;-3.47;-9.74;1.59;-0.12;0.86;-0.26;5.04;-3.64;11.97
12580;-3.69;-9.91;1.13;-0.12;0.86;-0.27;8.19;-4.55;15.26
12589;-3.70;-9.71;0.90;-0.12;0.86;-0.27;10.99;-7.42;18.90
12598;-3.82;-9.53;0.83;-0.12;0.86;-0.27;14.56;-12.39;21.91
12606;-3.74;-9.12;0.67;-0.12;0.86;-0.27;18.06;-18.76;23.10
12615;-3.64;-8.74;0.81;-0.12;0.86;-0.27;18.97;-26.74;22.12
12624;-3.12;-8.54;1.09;-0.12;0.86;-0.27;17.29;-30.94;19.81
12633;-2.75;-8.59;1.50;-0.11;0.87;-0.25;13.72;-28.63;14.91
12642;-2.77;-8.54;1.67;-0.11;0.87;-0.25;7.21;-21.98;9.38
12650;-2.84;-8.81;1.53;-0.11;0.87;-0.25;1.61;-13.58;4.06
12659;-3.06;-9.08;1.43;-0.11;0.87;-0.25;-1.33;-7.00;0.00
12668;-3.17;-9.41;1.33;-0.11;0.87;-0.25;-1.75;-1.89;-1.12
12677;-3.30;-9.42;0.98;-0.11;0.87;-0.25;0.49;1.89;0.21
12686;-3.50;-9.26;0.84;-0.12;0.86;-0.25;4.34;0.91;2.52
12695;-4.21;-9.25;0.24;-0.12;0.86;-0.25;9.59;-3.01;2.66
12703;-3.69;-9.25;0.04;-0.11;0.88;-0.25;8.96;-12.88;4.83
12712;-3.61;-9.20;0.01;-0.11;0.88;-0.25;7.63;-19.32;6.16
12721;-3.67;-8.97;0.44;-0.11;0.88;-0.25;-0.21;-26.11;2.52
12730;-3.28;-9.04;0.93;-0.11;0.87;-0.25;-10.92;-26.25;-0.07
12739;-3.15;-9.16;1.49;-0.11;0.87;-0.25;-19.53;-19.25;-1.68
12747;-3.13;-9.16;1.56;-0.11;0.87;-0.25;-24.36;-12.18;-3.71
12756;-3.24;-9.27;1.40;-0.12;0.88;-0.25;-21.84;-7.77;-3.57
12765;-3.29;-9.43;1.43;-0.12;0.88;-0.25;-13.93;-7.49;-1.82
12774;-3.43;-9.42;1.25;-0.12;0.88;-0.25;-5.46;-9.66;1.47
12783;-3.35;-9.25;0.85;-0.11;0.86;-0.27;2.94;-13.86;4.41
12791;-3.35;-9.03;0.60;-0.11;0.86;-0.27;9.45;-20.02;5.60
12800;-3.24;-8.84;0.54;-0.11;0.86;-0.27;11.48;-24.85;3.85
12809;-3.17;-8.79;0.38;-0.12;0.87;-0.25;7.91;-27.37;-0.77
12818;-3.09;-8.79;0.36;-0.12;0.87;-0.25;-0.35;-24.50;-5.18
12827;-3.19;-9.02;0.68;-0.12;0.87;-0.25;-10.29;-20.30;-9.87
12835;-3.35;-9.29;0.85;-0.13;0.86;-0.25;-20.51;-15.61;-14.21
12844;-3.42;-9.50;1.02;-0.13;0.86;-0.25;-28.14;-9.94;-15.05
12853;-3.63;-9.68;1.20;-0.13;0.86;-0.25;-27.65;-7.28;-13.23
12862;-3.53;-9.67;1.34;-0.12;0.87;-0.25;-20.51;-8.40;-9.17
12871;-3.57;-9.71;1.47;-0.12;0.87;-0.25;-8.96;-12.60;-5.60
12880;-3.42;-9.75;1.59;-0.12;0.87;-0.25;1.26;-15.82;-2.10
12889;-3.38;-9.68;1.37;-0.13;0.86;-0.27;8.12;-18.27;1.68
12898;-3.19;-9.68;1.37;-0.13;0.86;-0.27;11.20;-19.60;3.50
12906;-3.18;-9.52;1.23;-0.13;0.86;-0.27;12.39;-19.88;3.57
12915;-3.15;-9.51;1.16;-0.13;0.88;-0.25;9.87;-18.34;2.45
12924;-3.14;-9.53;1.01;-0.13;0.88;-0.25;5.32;-15.75;0.00
12933;-3.12;-9.72;1.11;-0.13;0.88;-0.25;1.33;-12.46;-0.70
12942;-3.39;-9.78;1.06;-0.13;0.87;-0.26;-0.98;-10.92;-1.68
12950;-3.35;-9.74;1.18;-0.13;0.87;-0.26;-0.35;-10.99;0.00
12959;-3.57;-9.94;1.34;-0.13;0.87;-0.26;4.83;-12.81;3.64
12968;-3.52;-9.87;1.36;-0.14;0.87;-0.26;12.04;-14.91;8.05
12977;-3.60;-9.82;1.37;-0.14;0.87;-0.26;20.23;-16.52;12.53
12986;-3.43;-9.65;1.26;-0.13;0.86;-0.25;26.04;-16.31;15.33
12995;-3.42;-9.48;0.97;-0.13;0.86;-0.25;26.74;-15.05;15.40
13003;-3.29;-9.37;0.73;-0.13;0.86;-0.25;23.38;-12.53;12.81
13012;-3.17;-9.33;0.42;-0.13;0.87;-0.24;17.57;-10.85;10.29
13021;-3.24;-7.39;0.22;-0.13;0.87;-0.24;14.42;-11.55;6.93
13030;-3.32;-9.10;0.18;-0.13;0.87;-0.24;10.71;-12.11;1.47
13039;-3.40;-9.17;0.11;-0.13;0.87;-0.25;5.25;-12.60;-2.24
13048;-3.35;-9.19;0.39;-0.13;0.87;-0.25;0.70;-11.97;-4.90
13057;-3.22;-9.41;0.73;-0.13;0.87;-0.25;-3.78;-10.01;-7.77
13065;-3.32;-9.42;0.86;-0.14;0.87;-0.25;-8.33;-5.11;-9.45
13074;-3.38;-9.63;1.16;-0.14;0.87;-0.25;-11.34;0.56;-10.29
13083;-3.48;-9.73;1.08;-0.14;0.87;-0.25;-12.25;4.06;-9.80
13092;-3.42;-9.99;0.98;-0.14;0.88;-0.25;-10.01;4.76;-7.98
13101;-3.52;-10.09;1.01;-0.14;0.88;-0.25;-5.88;2.31;-6.16
13110;-3.53;-10.19;1.03;-0.14;0.88;-0.25;-0.98;-1.40;-3.57
13118;-3.50;-10.04;0.85;-0.14;0.87;-0.25;4.27;-5.11;-0.70
13127;-3.31;-9.99;0.78;-0.14;0.87;-0.25;9.94;-7.98;0.28
13136;-3.28;-9.76;0.73;-0.14;0.87;-0.25;11.62;-9.52;-0.21
13145;-3.29;-9.57;0.67;-0.14;0.88;-0.24;9.94;-8.40;-1.75
13154;-3.11;-9.42;0.44;-0.14;0.88;-0.24;3.85;-6.51;-4.62
13162;-3.29;-9.44;0.51;-0.14;0.88;-0.24;-2.03;-4.48;-6.09
13171;-3.22;-9.53;0.79;-0.14;0.88;-0.24;-7.98;-1.68;-7.56
13180;-3.24;-9.73;0.90;-0.14;0.88;-0.24;-13.37;2.52;-7.77
13189;-3.35;-9.82;1.00;-0.14;0.88;-0.24;-15.54;3.85;-7.35
13198;-3.39;-10.03;1.03;-0.14;0.86;-0.23;-12.39;3.43;-6.72
13206;-3.46;-10.07;1.09;-0.14;0.86;-0.23;-8.61;0.98;-4.62
13215;-3.53;-10.12;0.93;-0.14;0.86;-0.23;-4.34;-1.96;-3.22
13224;-3.58;-10.07;0.91;-0.14;0.87;-0.23;-2.17;-3.92;-1.54
13233;-3.62;-10.04;0.93;-0.14;0.87;-0.23;-0.56;-4.55;0.14
13242;-3.50;-10.09;0.87;-0.14;0.87;-0.23;0.42;-4.55;1.54
13251;-3.52;-9.81;0.81;-0.14;0.86;-0.23;1.89;-5.04;2.59
13259;-3.51;-9.67;0.73;-0.14;0.86;-0.23;4.34;-6.02;2.38
13268;-3.29;-9.53;0.79;-0.15;0.87;-0.25;5.81;-6.86;2.45
13277;-3.29;-9.45;0.67;-0.15;0.87;-0.25;3.85;-5.81;1.68
13286;-3.12;-9.32;0.59;-0.15;0.87;-0.25;-0.28;-2.38;-0.21
13295;-3.22;-9.24;0.60;-0.14;0.88;-0.24;-7.00;2.87;-2.03
13304;-3.41;-9.31;0.61;-0.14;0.88;-0.24;-10.78;5.11;-2.87
13312;-3.45;-9.38;0.77;-0.14;0.88;-0.24;-10.01;5.46;-0.77
13321;-3.57;-9.30;0.62;-0.14;0.87;-0.26;-6.16;3.43;2.66
13330;-3.58;-9.16;0.72;-0.14;0.87;-0.26;0.63;-0.70;4.62
13339;-3.49;-9.11;0.50;-0.14;0.87;-0.26;6.23;-5.53;5.60
13348;-3.29;-9.01;0.62;-0.14;0.87;-0.23;9.94;-9.59;5.32
13357;-3.21;-8.92;0.74;-0.14;0.87;-0.23;10.85;-11.34;4.76
13365;-3.01;-8.94;0.80;-0.14;0.87;-0.23;9.38;-9.73;2.59
13374;-3.06;-9.02;0.81;-0.14;0.87;-0.24;6.30;-5.74;0.00
13383;-2.93;-9.01;0.75;-0.14;0.87;-0.24;1.12;-0.56;-2.17
13392;-3.18;-9.16;0.70;-0.14;0.87;-0.24;-5.11;5.46;-3.71
13401;-3.23;-9.32;0.78;-0.14;0.86;-0.24;-10.36;9.10;-4.20
13410;-3.36;-9.53;0.73;-0.14;0.86;-0.24;-9.31;8.75;-3.36
13418;-3.61;-9.55;0.80;-0.14;0.86;-0.24;-3.50;5.60;-1.61
13427;-3.45;-9.54;0.73;-0.14;0.87;-0.25;3.43;1.96;0.98
13436;-3.32;-9.43;0.94;-0.14;0.87;-0.25;7.00;-0.21;3.08
13445;-3.39;-9.28;0.77;-0.14;0.87;-0.25;8.47;-1.26;3.15
13454;-3.27;-9.18;0.55;-0.14;0.87;-0.24;8.75;-2.59;1.33
13462;-3.20;-9.20;0.46;-0.14;0.87;-0.24;6.58;-3.08;-1.68
13471;-3.21;-9.05;0.49;-0.14;0.87;-0.24;3.15;-2.66;-4.06
13480;-3.19;-9.12;0.54;-0.14;0.87;-0.24;-2.03;-1.33;-5.88
13489;-3.42;-9.10;0.38;-0.14;0.87;-0.24;-8.05;-17.85;-8.33
13498;-3.41;-9.22;0.60;-0.14;0.87;-0.24;-12.32;0.21;-8.89
13507;-3.39;-9.38;0.75;-0.14;0.87;-0.24;-11.06;-0.56;-9.31
13516;-3.58;-9.43;0.88;-0.14;0.87;-0.24;-8.61;-1.75;-8.54
13524;-3.57;-9.55;0.97;-0.14;0.87;-0.24;-5.39;-2.10;-7.07
13533;-3.60;-9.64;1.03;-0.14;0.87;-0.24;-2.17;-1.19;-5.39
13542;-3.64;-9.64;0.98;-0.14;0.87;-0.24;0.14;-1.82;-4.76
13551;-3.69;-9.59;1.00;-0.15;0.87;-0.24;4.62;-3.64;-4.41
13560;-3.60;-9.66;0.93;-0.15;0.87;-0.24;8.19;-4.90;-3.71
13569;-3.68;-9.42;0.83;-0.15;0.87;-0.24;8.89;-4.90;-3.64
13578;-3.49;-9.30;0.82;-0.14;0.88;-0.23;7.28;-3.71;-3.85
13586;-3.48;-9.27;0.76;-0.14;0.88;-0.23;3.22;-1.05;-4.55
13595;-3.41;-9.15;0.78;-0.14;0.88;-0.23;-0.98;1.75;-5.74
13604;-3.50;-9.09;0.60;-0.14;0.88;-0.24;-4.06;3.78;-8.19
13613;-3.46;-9.12;0.77;-0.14;0.88;-0.24;-6.51;3.99;-10.08
13622;-3.76;-9.30;0.89;-0.14;0.88;-0.24;-5.04;3.50;-9.66
13630;-3.95;-9.47;0.96;-0.16;0.87;-0.23;-2.59;1.26;-8.68
13639;-3.95;-9.76;0.95;-0.16;0.87;-0.23;2.03;0.42;-5.60
13648;-3.94;-9.63;1.03;-0.16;0.87;-0.23;5.53;-0.63;-3.57
13657;-3.86;-9.55;0.95;-0.15;0.88;-0.23;9.17;-1.96;-1.68
13666;-3.75;-9.43;0.85;-0.15;0.88;-0.23;11.27;-2.80;-1.40
13675;-3.69;-9.35;0.86;-0.15;0.88;-0.23;11.13;-2.38;-1.61
13683;-3.54;-9.25;0.87;-0.15;0.87;-0.23;9.59;-1.26;-3.36
13692;-3.58;-9.15;0.73;-0.15;0.87;-0.23;5.53;0.42;-4.97
13701;-3.58;-9.02;0.76;-0.15;0.87;-0.23;1.19;2.10;-6.51
13710;-3.73;-9.14;0.85;-0.15;0.87;-0.22;-1.82;3.50;-7.84
13718;-3.73;-9.13;0.89;-0.15;0.87;-0.22;-1.61;4.69;-7.28
13727;-3.73;-9.22;0.93;-0.15;0.87;-0.22;2.10;3.36;-6.02
13736;-3.63;-9.33;0.98;-0.15;0.87;-0.24;6.16;2.94;-4.83
13745;-3.61;-9.22;0.95;-0.15;0.87;-0.24;8.82;4.27;-3.36
13754;-3.57;-9.21;0.95;-0.15;0.87;-0.24;9.45;4.97;-2.38
13763;-3.55;-9.15;0.77;-0.15;0.87;-0.24;11.06;4.69;-1.82
13771;-3.51;-9.04;0.73;-0.15;0.87;-0.24;11.83;3.64;-2.24
13780;-3.40;-9.08;0.65;-0.15;0.87;-0.24;11.34;2.87;-3.36
13789;-3.36;-8.99;0.56;-0.15;0.87;-0.22;10.08;3.43;-4.27
13798;-3.37;-9.00;0.51;-0.15;0.87;-0.22;5.81;4.48;-5.46
13807;-3.30;-8.87;0.51;-0.15;0.87;-0.23;1.05;6.51;-6.72
13816;-3.48;-9.00;0.66;-0.14;0.87;-0.23;-2.31;7.70;-7.63
13824;-3.56;-9.25;0.83;-0.14;0.87;-0.23;-1.33;8.54;-6.86
13833;-3.54;-9.41;0.67;-0.15;0.87;-0.23;2.03;7.84;-5.25
13842;-3.63;-9.51;0.68;-0.15;0.87;-0.23;6.72;5.53;-4.34
13851;-3.56;-9.60;0.52;-0.15;0.87;-0.23;10.36;3.36;-2.80
13860;-3.61;-9.61;0.68;-0.15;0.87;-0.23;11.41;1.47;-0.91
13869;-3.55;-9.52;0.60;-0.15;0.87;-0.23;10.85;1.54;0.35
13877;-3.57;-9.52;0.45;-0.15;0.87;-0.23;9.59;1.47;0.70
13886;-3.53;-9.39;0.37;-0.16;0.88;-0.24;8.96;1.96;-0.98
13895;-3.52;-9.34;0.34;-0.16;0.88;-0.24;6.72;2.17;-3.15
13904;-3.65;-9.45;0.34;-0.16;0.88;-0.24;3.29;2.87;-5.04
13913;-3.55;-9.66;0.40;-0.16;0.88;-0.23;1.54;3.15;-5.46
13921;-3.60;-9.66;0.39;-0.16;0.88;-0.23;2.45;2.38;-4.62
13930;-3.66;-9.73;0.40;-0.16;0.88;-0.23;4.48;0.98;-2.59
13939;-3.65;-9.74;0.40;-0.15;0.88;-0.22;6.30;0.00;-0.21
13948;-3.65;-9.67;0.49;-0.15;0.88;-0.22;8.12;0.07;1.82
13957;-3.75;-9.53;0.43;-0.15;0.88;-0.22;8.82;0.70;2.66
13965;-3.54;-9.38;0.47;-0.16;0.88;-0.23;10.43;1.19;2.87
13974;-3.42;-9.25;0.32;-0.16;0.88;-0.23;11.06;1.12;1.33
13983;-3.50;-9.22;0.20;-0.16;0.88;-0.23;10.85;2.59;0.00
13992;-3.39;-9.24;0.11;-0.16;0.88;-0.22;7.14;2.94;-3.08
14001;-3.57;-9.30;0.03;-0.16;0.88;-0.22;2.80;3.57;-4.48
14009;-3.69;-9.40;0.10;-0.16;0.88;-0.22;-1.19;3.29;-4.06
14018;-3.84;-9.52;0.18;-0.16;0.88;-0.23;-1.82;0.21;-4.34
14027;-3.78;-9.64;0.30;-0.16;0.88;-0.23;0.91;-1.96;-3.71
14036;-3.85;-9.62;0.47;-0.16;0.88;-0.23;4.20;-3.01;-1.47
14045;-3.69;-9.52;0.45;-0.17;0.89;-0.22;6.51;-1.96;-1.33
14054;-3.61;-9.66;0.34;-0.17;0.89;-0.22;5.25;-0.77;-1.26
14062;-3.62;-9.83;0.19;-0.17;0.89;-0.22;2.87;0.77;-1.68
14071;-3.51;-9.93;0.06;-0.16;0.88;-0.22;-0.14;1.89;-1.89
14080;-3.52;-9.97;0.24;-0.16;0.88;-0.22;-3.29;2.31;-1.89
14089;-3.65;-10.05;0.27;-0.16;0.88;-0.22;-4.41;1.33;-1.75
14098;-3.63;-9.99;0.47;-0.16;0.89;-0.23;-3.78;-0.07;-1.05
14106;-3.62;-10.09;0.48;-0.16;0.89;-0.23;-2.52;-1.19;0.63
14115;-3.63;-10.03;0.45;-0.17;0.87;-0.23;-1.33;-1.96;1.61
14124;-3.58;-10.11;0.34;-0.17;0.87;-0.23;-0.56;-2.80;3.08
14133;-3.50;-10.06;0.29;-0.17;0.87;-0.23;0.07;-3.08;5.25
14142;-3.50;-10.01;0.32;-0.16;0.88;-0.22;-0.28;-3.22;6.93
14150;-3.45;-9.87;0.32;-0.16;0.88;-0.22;-0.07;-3.29;7.35
14159;-3.34;-9.86;0.30;-0.16;0.88;-0.22;-0.07;-3.15;7.21
14168;-3.29;-9.68;0.32;-0.15;0.88;-0.22;-1.40;-1.89;6.37
14177;-3.26;-9.58;0.18;-0.15;0.88;-0.22;-3.01;-0.35;5.39
14186;-3.27;-9.66;0.24;-0.15;0.88;-0.22;-4.62;0.21;4.62
14195;-3.27;-9.53;0.06;-0.15;0.88;-0.22;-6.79;0.21;4.13
14204;-3.40;-9.40;0.14;-0.15;0.88;-0.22;-9.17;-0.84;2.87
14212;-3.43;-9.44;0.02;-0.15;0.88;-0.22;-11.06;-1.05;2.17
14221;-3.60;-9.42;0.15;-0.16;0.88;-0.22;-10.78;-2.87;1.61
14230;-3.61;-9.50;0.35;-0.16;0.88;-0.22;-8.96;-4.97;1.54
14239;-3.55;-9.73;0.49;-0.16;0.88;-0.22;-8.19;-5.88;1.12
14248;-3.59;-9.63;0.65;-0.16;0.88;-0.23;-9.73;-4.90;1.68
14256;-3.67;-9.60;0.83;-0.16;0.88;-0.23;-12.81;-3.57;1.40
14265;-3.53;-9.68;1.06;-0.16;0.88;-0.23;-13.79;-2.66;2.31
14274;-3.41;-9.60;1.13;-0.15;0.89;-0.22;-12.04;-1.75;4.20
14283;-3.24;-9.53;1.18;-0.15;0.89;-0.22;-8.89;-1.75;4.13
14292;-3.27;-9.52;1.20;-0.15;0.89;-0.22;-6.65;0.07;4.41
14301;-3.28;-9.45;1.13;-0.16;0.88;-0.23;-5.95;2.24;3.92
14309;-3.24;-9.45;0.97;-0.16;0.88;-0.23;-7.70;4.48;3.78
14318;-3.32;-9.54;0.93;-0.16;0.88;-0.23;-10.43;5.88;3.71
14327;-3.31;-9.58;0.80;-0.16;0.89;-0.23;-10.36;5.53;4.20
14336;-3.41;-9.53;0.91;-0.16;0.89;-0.23;-8.82;3.78;4.20
14345;-3.33;-9.57;0.85;-0.16;0.89;-0.23;-6.44;2.38;4.83
14354;-3.42;-9.51;0.88;-0.15;0.88;-0.23;-5.74;0.77;4.69
14362;-3.36;-9.45;0.61;-0.15;0.88;-0.23;-6.65;-1.05;3.71
14371;-3.39;-9.50;0.80;-0.15;0.88;-0.23;-9.03;-1.82;3.08
14380;-3.30;-9.46;0.88;-0.15;0.88;-0.24;-11.34;-1.75;2.17
14389;-3.24;-9.39;0.91;-0.15;0.88;-0.24;-11.97;-2.38;1.54
14398;-3.14;-9.40;0.96;-0.15;0.88;-0.24;-10.43;-1.96;1.05
14407;-3.22;-9.48;1.17;-0.15;0.88;-0.24;-8.89;-0.28;1.89
14415;-3.11;-9.47;1.13;-0.15;0.88;-0.24;-7.14;2.59;2.87
14424;-3.27;-9.41;0.98;-0.15;0.88;-0.23;-4.41;3.50;3.22
14433;-3.29;-9.39;0.81;-0.15;0.88;-0.23;-0.98;3.43;3.01
14442;-3.34;-9.34;0.63;-0.15;0.88;-0.23;0.77;2.52;2.52
14451;-3.47;-9.29;0.67;-0.15;0.87;-0.23;-0.49;1.19;1.61
14459;-3.50;-7.39;0.54;-0.15;0.87;-0.23;-3.50;1.68;0.77
14468;-3.42;-9.10;0.55;-0.15;0.87;-0.23;-5.74;1.61;-0.70
14477;-3.39;-9.03;0.68;-0.15;0.87;-0.24;-7.70;1.75;-2.24
14486;-3.37;-9.10;0.57;-0.15;0.87;-0.24;-10.08;0.98;-3.78
14495;-3.35;-9.16;0.67;-0.15;0.87;-0.24;-10.64;0.70;-4.97
14504;-3.47;-9.22;0.62;-0.15;0.88;-0.23;-10.78;-0.49;-5.32
14513;-3.45;-9.39;0.83;-0.15;0.88;-0.23;-11.06;-2.03;-5.53
14521;-3.63;-9.53;0.86;-0.15;0.88;-0.23;-9.66;-1.75;-4.97
14530;-3.78;-9.53;1.01;-0.15;0.87;-0.24;-6.65;-0.49;-1.89
14539;-3.78;-9.47;0.79;-0.15;0.87;-0.24;-0.49;0.63;1.05
14548;-3.77;-9.45;0.70;-0.15;0.87;-0.24;4.27;0.14;3.43
14556;-5.51;-9.34;0.65;-0.15;0.89;-0.24;7.35;-0.63;4.69
14565;-3.60;-9.43;0.49;-0.15;0.89;-0.24;6.58;-1.47;4.41
14574;-3.45;-9.39;0.52;-0.15;0.89;-0.24;2.94;-0.21;3.85
14583;-3.48;-9.30;0.51;-0.15;0.87;-0.23;-0.56;1.19;2.45
14592;-3.39;-9.40;0.46;-0.15;0.87;-0.23;-3.50;1.26;1.19
14600;-3.42;-9.57;0.37;-0.15;0.87;-0.23;-4.34;0.35;1.54
14609;-3.57;-9.60;0.34;-0.15;0.88;-0.23;-3.50;-1.61;3.64
14618;-3.83;-9.40;0.58;-0.15;0.88;-0.23;0.14;-4.13;7.07
14627;-3.65;-9.40;0.57;-0.15;0.88;-0.23;5.25;-5.18;10.29
14636;-3.69;-9.35;0.46;-0.15;0.87;-0.24;7.98;-4.34;12.46
14645;-3.62;-9.10;0.46;-0.15;0.87;-0.24;7.42;-3.36;11.41
14654;-3.42;-9.04;0.24;-0.15;0.87;-0.24;2.80;-2.94;8.68
14662;-3.53;-9.09;0.37;-0.15;0.87;-0.23;-3.64;-2.38;6.30
14671;-3.57;-9.15;0.45;-0.15;0.87;-0.23;-9.38;-1.96;3.15
14680;-3.45;-9.31;0.77;-0.15;0.87;-0.23;-13.09;-0.91;0.70
14689;-3.56;-9.49;0.90;-0.15;0.87;-0.23;-16.52;0.56;-0.63
14698;-3.65;-9.56;1.10;-0.15;0.87;-0.23;-16.66;0.70;-0.42
14706;-3.78;-9.74;1.15;-0.14;0.87;-0.25;-11.34;-1.05;2.38
14715;-3.87;-9.83;1.23;-0.14;0.87;-0.25;-1.54;-2.80;5.25
14724;-3.75;-9.83;1.11;-0.14;0.87;-0.25;6.09;-2.94;8.75
14733;-3.70;-9.66;0.97;-0.15;0.87;-0.24;10.92;-1.96;10.99
14742;-3.67;-9.58;0.80;-0.15;0.87;-0.24;10.78;-0.35;11.13
14751;-3.54;-9.44;0.65;-0.15;0.87;-0.24;7.84;0.42;10.22
14759;-3.42;-9.40;0.44;-0.15;0.88;-0.23;5.04;0.63;9.24
14768;-3.34;-9.53;0.58;-0.15;0.88;-0.23;3.64;0.49;8.75
14777;-3.19;-9.50;0.57;-0.15;0.88;-0.23;2.94;-0.07;8.47
14786;-3.14;-9.33;0.65;-0.14;0.88;-0.24;3.50;0.91;7.35
14795;-3.07;-9.27;0.59;-0.14;0.88;-0.24;2.31;2.80;5.25
14804;-3.08;-9.17;0.44;-0.14;0.88;-0.24;-0.28;3.64;3.50
14812;-3.12;-9.32;0.52;-0.14;0.88;-0.24;-1.96;1.96;2.10
14821;-3.22;-9.22;0.39;-0.14;0.88;-0.24;-1.05;-1.12;1.61
14830;-3.48;-9.27;0.60;-0.14;0.88;-0.24;1.75;-3.22;1.12
14839;-3.50;-9.17;0.71;-0.14;0.89;-0.24;3.08;-5.04;1.75
14848;-3.53;-9.18;0.54;-0.14;0.89;-0.24;3.43;-4.83;2.17
14857;-3.56;-9.06;0.52;-0.14;0.89;-0.24;2.80;-5.04;0.91
14865;-3.38;-9.10;0.52;-0.14;0.87;-0.23;-0.07;-5.88;-1.47
14874;-3.50;-9.17;0.54;-0.14;0.87;-0.23;-3.36;-6.30;-4.06
14883;-3.32;-9.12;0.64;-0.14;0.87;-0.23;-6.79;-5.04;-5.95
14892;-3.42;-9.22;0.68;-0.15;0.87;-0.23;-9.52;-4.48;-8.40
14901;-3.53;-9.24;0.74;-0.15;0.87;-0.23;-11.97;-4.83;-10.01
14910;-3.54;-9.36;1.03;-0.15;0.87;-0.23;-14.63;-5.95;-10.50
14919;-3.51;-9.39;1.41;-0.14;0.88;-0.24;-12.60;-6.93;-6.44
14927;-3.70;-9.48;1.79;-0.14;0.88;-0.24;-7.21;-7.56;-3.99
14936;-3.50;-9.40;0.01;-0.14;0.88;-0.25;1.40;-6.30;0.14
14945;-3.24;-9.31;1.77;-0.15;0.88;-0.25;9.24;-3.50;2.87
14954;-3.17;-9.26;1.56;-0.15;0.88;-0.25;14.42;2.03;2.52
14963;-3.26;-9.22;1.01;-0.16;0.88;-0.24;15.82;7.91;2.17
14972;-3.31;-9.27;0.52;-0.16;0.88;-0.24;12.11;10.29;0.98
14980;-3.34;-9.23;0.49;-0.16;0.88;-0.24;6.79;10.78;-1.96
14989;-3.42;-9.28;0.33;-0.15;0.88;-0.23;0.91;10.64;-4.55
14998;-3.63;-9.34;0.42;-0.15;0.88;-0.23;-3.29;9.73;-5.88
complete
