Time(ms);AccX(m/s^2);AccY(m/s^2);AccZ(m/s^2);MagX(gauss);MagY(gauss);MagZ(gauss);GyroX(dps);GyroY(dps);GyroZ(dps)
32;-2.51;-9.81;0.61;-0.06;0.89;-0.24;-0.98;-6.86;-1.68
41;-2.55;-9.86;0.57;-0.06;0.89;-0.24;-2.31;-6.44;-1.75
50;-2.56;-9.96;0.62;-0.06;0.89;-0.24;-2.80;-5.67;-1.89
59;-2.51;-9.96;0.65;-0.07;0.90;-0.23;-2.59;-5.11;-1.68
67;-2.52;-10.04;0.49;-0.07;0.90;-0.23;-3.01;-4.90;-1.75
76;-2.51;-10.03;0.67;-0.07;0.90;-0.23;-2.66;-4.69;-1.33
85;-2.53;-10.01;0.64;-0.07;0.90;-0.25;-1.96;-4.76;-0.77
94;-2.63;-10.02;0.56;-0.07;0.90;-0.25;-0.35;-4.97;-0.56
103;-2.65;-10.02;0.56;-0.07;0.90;-0.25;0.63;-4.97;-0.63
111;-2.56;-10.06;0.55;-0.08;0.90;-0.24;1.12;-5.88;-0.21
120;-2.60;-10.03;0.60;-0.08;0.90;-0.24;0.28;-5.81;-0.14
129;-2.54;-9.99;0.62;-0.08;0.90;-0.24;-1.33;-5.04;0.07
138;-2.53;-10.02;0.64;-0.08;0.89;-0.24;-3.08;-4.69;0.35
146;-2.48;-9.91;0.63;-0.08;0.89;-0.24;-4.27;-4.27;0.91
155;-2.40;-9.86;0.62;-0.08;0.89;-0.24;-4.62;-3.57;0.84
164;-2.40;-9.73;0.85;-0.07;0.90;-0.25;-4.90;-1.75;0.77
173;-2.38;-9.71;0.74;-0.07;0.90;-0.25;-4.20;-0.49;0.84
182;-2.38;-9.68;0.83;-0.07;0.91;-0.24;-1.96;0.56;0.84
190;-2.28;-9.76;0.82;-0.07;0.91;-0.24;0.63;0.77;0.77
199;-2.31;-9.74;0.91;-0.07;0.91;-0.24;2.38;0.21;0.21
208;-2.25;-9.74;0.78;-0.07;0.91;-0.25;3.43;-0.42;0.28
217;-2.23;-9.75;0.66;-0.07;0.91;-0.25;2.73;-0.91;-0.07
226;-2.25;-9.73;0.68;-0.07;0.91;-0.25;2.03;-0.70;0.21
234;-2.24;-9.78;0.68;-0.08;0.90;-0.24;1.05;-17.92;0.07
243;-2.27;-9.71;0.71;-0.08;0.90;-0.24;0.00;0.28;-0.42
252;-2.29;-9.76;0.62;-0.08;0.90;-0.24;0.14;1.12;-0.14
261;-2.30;-9.85;0.60;-0.08;0.91;-0.25;0.77;1.68;0.14
269;-2.20;-9.88;0.69;-0.08;0.91;-0.25;1.26;2.10;0.35
278;-2.22;-9.82;0.65;-0.08;0.91;-0.25;1.75;2.03;0.28
287;-2.27;-9.86;0.67;-0.07;0.90;-0.24;2.38;1.47;0.49
296;-2.29;-9.88;0.60;-0.07;0.90;-0.24;2.38;1.47;0.56
304;-2.33;-10.01;0.65;-0.07;0.90;-0.24;1.96;1.33;0.56
313;-2.35;-9.87;0.60;-0.07;0.91;-0.23;1.54;0.84;-0.21
322;-2.30;-9.84;0.63;-0.07;0.91;-0.23;1.05;0.84;0.14
331;-2.30;-9.86;0.46;-0.07;0.91;-0.23;0.91;0.35;0.21
340;-2.20;-9.90;0.57;-0.07;0.91;-0.25;0.35;0.63;0.21
348;-2.15;-9.88;0.65;-0.07;0.91;-0.25;-0.21;0.84;0.00
357;-2.01;-9.94;0.70;-0.07;0.91;-0.25;0.07;1.54;0.14
366;-1.97;-10.09;0.73;-0.08;0.91;-0.25;0.91;1.96;0.21
375;-1.87;-10.11;0.58;-0.08;0.91;-0.25;2.31;1.75;0.35
384;-1.77;-10.14;0.58;-0.08;0.91;-0.25;4.13;0.63;0.14
392;-1.69;-10.26;0.57;-0.08;0.91;-0.24;4.27;-0.42;0.28
401;-1.59;-10.19;0.47;-0.08;0.91;-0.24;5.95;-1.54;1.05
410;-1.55;-10.10;0.50;-0.08;0.91;-0.24;5.88;-1.89;1.47
419;-1.44;-10.21;0.56;-0.08;0.90;-0.25;5.32;-1.68;0.63
428;-1.32;-10.34;0.65;-0.08;0.90;-0.25;3.22;-1.47;-0.42
436;-1.11;-10.49;0.72;-0.08;0.90;-0.25;0.42;-1.33;-2.03
445;-0.84;-10.53;0.52;-0.08;0.90;-0.24;-3.36;-0.35;-0.21
454;-0.56;-10.72;0.69;-0.08;0.90;-0.24;-4.48;-1.61;-0.07
463;-0.19;-10.88;0.75;-0.08;0.90;-0.24;-2.94;-3.08;-0.91
472;0.03;-10.85;0.85;-0.07;0.90;-0.25;1.75;-5.04;2.17
480;-0.08;-10.89;0.89;-0.07;0.90;-0.25;9.80;-8.05;2.38
489;0.08;-10.72;1.03;-0.07;0.90;-0.24;18.55;-10.36;2.94
498;0.03;-10.77;1.06;-0.07;0.90;-0.24;24.64;-10.92;1.89
507;0.04;-10.79;0.97;-0.07;0.90;-0.24;27.44;-11.41;1.19
516;-0.01;-10.84;1.01;-0.07;0.90;-0.24;26.53;-10.15;0.21
525;0.11;-10.65;1.08;-0.07;0.90;-0.24;23.17;-7.00;0.07
533;0.11;-10.69;1.14;-0.07;0.90;-0.24;13.23;-2.03;0.70
542;0.11;-10.65;1.37;-0.07;0.90;-0.23;1.68;4.20;-0.42
551;0.05;-10.83;1.40;-0.07;0.90;-0.23;-12.18;11.27;-1.26
560;0.04;-11.04;1.59;-0.07;0.90;-0.23;-28.42;17.78;-0.49
568;0.09;-11.19;2.31;-0.06;0.90;-0.23;-44.66;23.31;1.82
577;0.13;-11.46;3.12;-0.06;0.90;-0.23;-58.94;29.33;5.11
586;0.33;-11.37;3.81;-0.06;0.90;-0.23;-72.38;37.52;9.80
595;0.30;-10.87;4.36;-0.07;0.90;-0.24;-76.23;45.29;15.05
604;0.32;-10.29;4.80;-0.07;0.90;-0.24;-69.30;50.47;17.71
612;0.50;-9.86;5.02;-0.07;0.90;-0.24;-57.47;51.66;16.31
621;0.32;-9.30;4.80;-0.06;0.90;-0.24;-44.31;49.63;9.17
630;0.04;-9.11;4.69;-0.06;0.90;-0.24;-31.08;44.24;-0.21
639;0.48;-9.45;4.83;-0.06;0.90;-0.24;-25.83;36.05;-7.49
648;1.00;-9.86;5.02;-0.05;0.90;-0.25;-26.32;29.61;-15.82
657;1.62;-10.09;5.13;-0.05;0.90;-0.25;-37.24;19.81;-24.57
665;2.25;-10.32;5.91;-0.05;0.90;-0.25;-61.18;7.91;-30.80
674;2.75;-9.50;6.55;-0.07;0.89;-0.26;-97.30;-3.57;-31.57
683;2.49;-8.43;6.95;-0.07;0.89;-0.26;-145.53;-5.81;-42.56
692;2.20;-6.09;5.51;-0.07;0.89;-0.26;-214.48;-6.16;-56.42
700;1.67;-2.86;7.10;-0.08;0.87;-0.29;-282.94;0.35;-66.92
709;-0.39;-0.09;8.37;-0.08;0.87;-0.29;-343.84;-8.96;-68.60
718;-4.02;4.59;8.14;-0.08;0.87;-0.29;-363.58;-46.48;-68.04
727;-7.03;4.74;7.73;-0.09;0.82;-0.35;-280.00;-79.24;-99.40
736;-11.79;5.85;8.90;-0.09;0.82;-0.35;-65.87;-114.38;-122.50
744;-13.81;1.51;8.74;-0.09;0.82;-0.35;205.45;-96.60;-152.18
753;-14.29;-3.41;6.61;-0.13;0.82;-0.35;413.14;-19.25;-159.39
762;-16.00;-7.67;2.90;-0.13;0.82;-0.35;432.60;126.00;-150.15
771;-19.92;-15.73;-5.53;-0.13;0.82;-0.35;281.19;285.95;-132.65
779;-20.00;-23.04;-15.66;-0.13;0.85;-0.29;43.47;322.84;-113.19
788;-13.98;-32.27;-26.72;-0.13;0.85;-0.29;-91.28;268.87;-78.54
797;-7.35;-35.34;-32.37;-0.13;0.85;-0.30;14.14;179.69;25.41
806;-0.44;-27.19;-34.74;-0.09;0.85;-0.30;199.22;10.57;195.37
815;-1.28;-14.80;-28.17;-0.09;0.85;-0.30;250.25;-167.09;258.09
823;-3.05;-4.69;-15.58;-0.07;0.86;-0.28;130.97;-253.61;184.73
832;-6.19;0.31;-0.61;-0.07;0.86;-0.28;-43.89;-247.87;71.19
841;-7.87;2.13;10.07;-0.07;0.86;-0.28;-168.28;-175.77;-7.42
850;-9.73;1.54;17.16;-0.09;0.86;-0.29;-193.97;-77.56;-32.06
858;-10.83;-0.88;19.96;-0.09;0.86;-0.29;-124.25;-6.72;-23.10
867;-9.88;-4.00;18.31;-0.09;0.86;-0.29;-27.79;42.56;-3.15
876;-9.11;-6.36;14.59;-0.09;0.86;-0.31;61.67;72.31;27.93
885;-7.40;-8.08;9.91;-0.09;0.86;-0.31;111.58;87.71;47.74
894;-5.37;-8.54;4.90;-0.09;0.86;-0.31;127.19;84.77;57.89
902;-3.45;-8.78;-0.14;-0.07;0.86;-0.28;115.85;70.28;59.15
911;-1.72;-8.67;-2.93;-0.07;0.86;-0.28;90.86;45.64;49.56
920;-0.82;-8.36;-3.68;-0.07;0.86;-0.28;66.01;16.94;38.22
929;-0.60;-8.30;-2.76;-0.06;0.88;-0.27;42.84;0.98;27.58
937;-0.83;-8.34;-1.30;-0.06;0.88;-0.27;25.27;-8.12;17.57
946;-1.55;-8.87;0.20;-0.06;0.88;-0.27;10.78;-17.43;7.00
955;-1.55;-9.38;1.79;-0.07;0.88;-0.27;0.84;-21.49;3.43
964;-1.45;-9.15;2.81;-0.07;0.88;-0.27;-3.15;-18.62;3.08
972;-1.66;-8.84;3.26;-0.07;0.88;-0.27;-2.73;-16.03;2.80
981;-1.78;-8.69;3.19;-0.06;0.87;-0.27;-2.59;-15.40;1.54
990;-1.72;-8.88;3.10;-0.06;0.87;-0.27;-3.99;-11.76;-1.54
999;-2.07;-9.12;2.97;-0.06;0.87;-0.27;-8.33;-8.47;-4.20
1008;-2.30;-9.37;2.79;-0.06;0.88;-0.26;-8.96;-6.58;-5.60
1016;-2.28;-9.80;2.53;-0.06;0.88;-0.26;-5.88;-3.99;-6.58
1025;-2.38;-9.94;2.11;-0.06;0.88;-0.26;-0.84;-2.52;-6.72
1034;-2.60;-10.09;1.91;-0.07;0.87;-0.26;0.77;-1.89;-6.16
1043;-2.90;-10.19;1.81;-0.07;0.87;-0.26;0.21;-0.14;-4.90
1052;-3.19;-10.23;1.59;-0.07;0.87;-0.26;-0.91;2.59;-2.80
1060;-3.37;-10.19;1.50;-0.06;0.87;-0.27;2.66;2.31;0.91
1069;-3.47;-10.08;1.38;-0.06;0.87;-0.27;9.45;1.26;3.99
1078;-3.24;-10.11;1.18;-0.06;0.87;-0.27;15.19;0.77;5.88
1087;-3.04;-10.07;1.14;-0.07;0.87;-0.26;15.54;1.82;4.76
1095;-3.09;-10.11;1.08;-0.07;0.87;-0.26;9.94;2.66;3.29
1104;-3.08;-9.90;1.49;-0.07;0.87;-0.26;4.34;3.50;1.26
1113;-3.12;-9.85;1.56;-0.06;0.88;-0.25;3.08;5.04;0.77
1122;-3.14;-9.84;1.86;-0.06;0.88;-0.25;4.13;6.93;2.17
1130;-3.20;-9.62;1.93;-0.06;0.88;-0.26;7.00;9.59;5.32
1139;-3.21;-9.40;1.92;-0.07;0.89;-0.26;9.94;10.99;7.42
1148;-3.05;-9.03;1.59;-0.07;0.89;-0.26;12.74;12.11;9.24
1157;-2.83;-9.08;1.18;-0.07;0.88;-0.25;14.49;11.76;6.51
1166;-2.66;-9.22;0.73;-0.07;0.88;-0.25;12.18;8.33;3.29
1174;-2.39;-9.32;0.40;-0.07;0.88;-0.25;5.74;5.67;1.96
1183;-2.44;-9.38;0.45;-0.07;0.89;-0.24;-2.52;1.47;-1.54
1192;-2.68;-9.45;0.86;-0.07;0.89;-0.24;-10.85;-2.10;-4.76
1201;-2.81;-9.49;1.59;-0.07;0.89;-0.24;-12.95;-4.41;-5.25
1210;-3.00;-9.29;2.27;-0.06;0.89;-0.25;-11.55;-4.34;-4.48
1219;-3.07;-9.32;2.68;-0.06;0.89;-0.25;-8.19;-0.70;-3.29
1227;-3.01;-9.43;2.77;-0.06;0.89;-0.25;-1.75;3.57;-1.75
1236;-2.98;-9.58;2.38;-0.07;0.88;-0.26;5.11;6.23;1.26
1245;-2.76;-9.78;1.93;-0.07;0.88;-0.26;8.82;8.33;3.78
1254;-2.75;-10.07;1.26;-0.07;0.88;-0.26;8.96;8.40;5.32
1262;-2.68;-10.23;0.73;-0.07;0.89;-0.26;7.91;7.07;7.28
1271;-2.54;-10.24;0.29;-0.07;0.89;-0.26;5.74;3.85;9.87
1280;-2.51;-9.95;0.11;-0.07;0.89;-0.26;3.85;-2.31;10.99
1289;-2.40;-9.40;0.45;-0.06;0.88;-0.24;0.70;-7.98;10.50
1298;-2.68;-9.16;1.19;-0.06;0.88;-0.24;-2.45;-9.59;6.58
1306;-2.93;-9.31;1.67;-0.06;0.88;-0.24;-4.97;-7.14;3.43
1315;-3.17;-9.52;1.90;-0.06;0.89;-0.24;-5.18;-3.43;3.78
1324;-3.50;-9.78;1.95;-0.06;0.89;-0.24;-0.07;-1.26;5.95
1333;-3.55;-9.72;1.86;-0.06;0.89;-0.24;8.68;-0.28;11.34
1342;-3.52;-9.72;1.67;-0.06;0.88;-0.25;17.15;1.26;14.63
1350;-3.47;-9.48;1.34;-0.06;0.88;-0.25;20.58;0.49;16.38
1359;-3.11;-9.06;0.90;-0.06;0.88;-0.25;17.50;-0.21;15.82
1368;-3.07;-8.81;0.50;-0.07;0.89;-0.24;9.59;-0.56;10.15
1377;-3.06;-8.71;0.42;-0.07;0.89;-0.24;0.98;-1.26;3.29
1386;-3.14;-8.92;0.41;-0.07;0.89;-0.24;-4.27;-2.45;-2.45
1395;-3.23;-9.27;0.75;-0.06;0.89;-0.24;-8.61;-4.34;-4.41
1404;-3.39;-9.68;1.28;-0.06;0.89;-0.24;-8.40;-3.99;-3.78
1412;-3.53;-9.86;1.48;-0.06;0.89;-0.24;-5.32;-2.38;-3.36
1421;-3.68;-10.15;1.66;-0.06;0.89;-0.25;-1.05;1.19;-3.22
1430;-3.68;-10.32;1.33;-0.06;0.89;-0.25;5.67;2.66;1.54
1439;-3.43;-10.17;0.70;-0.06;0.90;-0.26;12.25;0.42;9.66
1448;-3.39;-10.21;0.01;-0.06;0.90;-0.26;14.28;-4.76;17.57
1456;-3.32;-9.78;-0.12;-0.06;0.90;-0.26;13.79;-14.07;23.17
1465;-3.04;-9.46;-0.18;-0.06;0.88;-0.25;13.16;-21.63;25.41
1474;-2.78;-9.09;-0.09;-0.06;0.88;-0.25;9.59;-22.89;23.10
1483;-2.61;-8.74;-0.16;-0.06;0.88;-0.25;2.87;-19.32;17.36
1492;-2.51;-8.51;-0.14;-0.05;0.90;-0.25;-6.72;-15.40;9.59
1500;-2.32;-8.66;-0.09;-0.05;0.90;-0.25;-15.47;-10.43;1.89
1509;-2.73;-8.98;0.05;-0.05;0.90;-0.25;-20.37;-7.49;-4.48
1518;-2.87;-9.44;0.27;-0.06;0.89;-0.25;-0.42;-7.35;-4.90
1527;-3.13;-9.99;0.19;-0.06;0.89;-0.25;-9.17;-7.63;-1.89
1536;-3.37;-10.34;1.03;-0.06;0.89;-0.25;-0.21;-7.98;5.39
1544;-3.80;-10.18;1.15;-0.06;0.90;-0.25;9.17;-12.04;14.84
1553;-3.50;-9.84;1.18;-0.06;0.90;-0.25;21.00;-16.31;18.13
1562;-3.02;-9.36;1.17;-0.06;0.90;-0.25;25.83;-16.45;20.23
1571;-2.71;-9.14;1.03;-0.06;0.89;-0.24;28.21;-14.07;17.99
1580;-2.44;-8.87;0.92;-0.06;0.89;-0.24;26.81;-11.06;12.39
1588;-2.51;-8.93;0.70;-0.06;0.89;-0.24;18.55;-7.84;4.90
1597;-2.35;-9.20;0.78;-0.07;0.90;-0.24;12.74;-6.30;-0.98
1606;-2.44;-9.37;0.54;-0.07;0.90;-0.24;5.67;-6.58;-4.20
1615;-2.51;-9.75;0.65;-0.07;0.90;-0.24;1.05;-8.12;-5.67
1624;-2.65;-9.95;0.65;-0.06;0.91;-0.24;0.00;-9.24;-3.85
1632;-2.83;-9.93;0.76;-0.06;0.91;-0.24;4.69;-10.71;2.17
1641;-2.53;-9.98;0.77;-0.06;0.91;-0.24;10.85;-11.20;8.26
1650;-2.67;-9.78;0.73;-0.07;0.91;-0.25;16.52;-9.94;11.76
1659;-2.51;-9.32;0.63;-0.07;0.91;-0.25;21.14;-9.87;11.83
1668;-2.31;-8.92;0.43;-0.07;0.91;-0.25;23.10;-12.25;8.75
1676;-2.29;-8.94;0.53;-0.06;0.91;-0.23;18.83;-12.46;3.29
1685;-2.10;-10.92;0.42;-0.06;0.91;-0.23;10.36;-13.72;-4.90
1694;-1.95;-9.54;0.93;-0.06;0.91;-0.23;1.05;-13.58;-12.46
1703;-2.11;-9.99;1.35;-0.06;0.90;-0.24;-8.19;-7.35;-16.17
1712;-2.35;-10.57;1.75;-0.06;0.90;-0.24;-10.43;-3.36;-17.22
1720;-2.60;-10.81;1.85;-0.06;0.90;-0.24;-5.18;0.28;-14.14
1729;-2.69;-10.97;1.94;-0.06;0.91;-0.25;4.76;3.71;-4.97
1738;-2.58;-10.62;1.62;-0.06;0.91;-0.25;16.94;6.16;3.43
1747;-2.43;-10.34;1.35;-0.06;0.90;-0.24;21.91;6.23;8.96
1756;-1.98;-10.01;1.09;-0.06;0.90;-0.24;23.66;5.95;9.94
1764;-1.72;-9.68;0.90;-0.06;0.90;-0.24;25.90;3.08;7.91
1773;-1.58;-9.46;0.66;-0.06;0.91;-0.25;25.76;2.52;3.43
1782;-1.55;-9.35;0.42;-0.06;0.91;-0.25;21.56;3.08;-2.10
1791;-1.45;-9.33;0.29;-0.06;0.91;-0.25;14.28;3.92;-6.30
1800;-1.49;-9.60;0.27;-0.06;0.91;-0.23;2.31;6.72;-10.22
1808;-1.79;-9.85;0.48;-0.06;0.91;-0.23;-14.63;12.53;-11.55
1817;-2.12;-9.88;0.73;-0.06;0.91;-0.23;-28.35;18.13;-10.36
1826;-2.39;-9.92;0.82;-0.07;0.92;-0.25;-32.41;17.22;-6.09
1835;-2.73;-10.07;1.08;-0.07;0.92;-0.25;-19.53;13.02;0.28
1844;-2.47;-9.73;1.19;-0.07;0.92;-0.25;-5.32;11.27;6.86
1852;-2.26;-9.51;1.03;-0.07;0.90;-0.24;7.35;8.47;9.80
1861;-1.90;-9.30;0.57;-0.07;0.90;-0.24;20.65;3.01;6.72
1870;-1.59;-9.41;0.36;-0.07;0.90;-0.24;27.30;-3.15;1.33
1879;-1.44;-9.30;0.41;-0.06;0.91;-0.23;23.52;-6.51;-4.27
1888;-1.55;-9.58;0.36;-0.06;0.91;-0.23;12.53;-7.77;-9.31
1896;-1.70;-9.71;0.52;-0.06;0.91;-0.23;-0.91;-6.30;-11.90
1905;-2.02;-9.96;0.63;-0.06;0.91;-0.23;-12.53;-2.52;-12.46
1914;-2.27;-10.20;0.88;-0.06;0.91;-0.23;-23.73;6.30;-9.03
1923;-2.49;-10.37;0.88;-0.06;0.91;-0.23;-29.40;12.81;-4.76
1932;-2.67;-10.34;0.88;-0.06;0.91;-0.24;-25.62;14.56;-1.68
1941;-2.56;-10.49;0.89;-0.06;0.91;-0.24;-16.38;10.78;1.54
1949;-2.33;-10.49;0.69;-0.06;0.91;-0.24;-3.71;4.97;3.08
1958;-1.84;-10.62;0.53;-0.07;0.91;-0.24;0.70;-2.10;2.73
1967;-1.87;-10.62;0.65;-0.07;0.91;-0.24;1.05;-6.51;2.45
1976;-2.00;-10.59;1.00;-0.07;0.91;-0.24;-0.77;-11.41;3.92
1985;-2.10;-10.49;1.03;-0.06;0.91;-0.23;-2.45;-11.90;5.81
1993;-1.98;-10.21;1.37;-0.06;0.91;-0.23;-7.70;-7.70;6.09
2002;-2.18;-10.08;1.58;-0.06;0.91;-0.23;-12.74;-2.59;5.18
2011;-2.05;-10.08;1.75;-0.06;0.90;-0.25;-11.62;4.13;4.34
2020;-2.12;-10.36;1.58;-0.06;0.90;-0.25;-8.12;9.94;4.48
2028;-2.02;-10.28;1.46;-0.06;0.90;-0.24;-3.50;13.93;5.46
2037;-2.00;-10.25;1.18;-0.07;0.90;-0.24;0.98;13.65;5.53
2046;-1.82;-10.11;1.08;-0.07;0.90;-0.24;3.92;8.33;5.88
2055;-1.83;-10.25;0.93;-0.07;0.91;-0.24;7.21;1.26;7.28
2064;-1.81;-9.91;0.90;-0.07;0.91;-0.24;11.90;-6.09;8.19
2072;-1.87;-9.88;1.14;-0.07;0.91;-0.24;17.50;-13.72;8.19
2081;-2.07;-9.81;1.46;-0.06;0.90;-0.23;22.75;-16.38;8.19
2090;-2.12;-9.80;1.73;-0.06;0.90;-0.23;25.48;-13.58;8.96
2099;-2.00;-9.72;1.59;-0.06;0.90;-0.23;25.20;-4.76;10.92
2108;-1.92;-9.81;1.21;-0.06;0.91;-0.25;20.72;3.64;10.71
2116;-1.90;-9.88;0.84;-0.06;0.91;-0.25;14.28;9.73;10.01
2125;-1.64;-9.81;0.44;-0.06;0.91;-0.25;8.33;11.62;9.94
2134;-1.75;-9.87;0.52;-0.05;0.91;-0.23;5.39;9.03;9.03
2143;-1.96;-9.86;0.61;-0.05;0.91;-0.23;6.58;3.43;8.68
2151;-1.96;-9.89;0.77;-0.05;0.91;-0.23;9.94;-1.19;8.68
2160;-3.68;-9.99;0.80;-0.05;0.91;-0.23;9.24;-3.71;6.72
2169;-1.96;-10.05;0.71;-0.05;0.91;-0.23;7.28;-5.60;4.76
2178;-1.87;-10.29;0.67;-0.05;0.91;-0.23;5.60;-5.18;6.58
2187;-1.94;-10.23;0.70;-0.05;0.91;-0.23;5.67;-4.69;9.03
2196;-1.87;-10.12;0.75;-0.05;0.91;-0.23;5.04;-3.29;10.71
2204;-1.88;-10.09;0.85;-0.05;0.91;-0.23;2.10;-0.91;9.45
2213;-1.85;-10.08;1.04;-0.04;0.92;-0.23;-1.89;2.59;8.47
2222;-1.81;-10.02;0.94;-0.04;0.92;-0.23;-3.08;5.11;7.63
2231;-1.79;-9.85;0.80;-0.04;0.92;-0.23;-3.01;4.97;6.58
2240;-1.68;-9.63;0.82;-0.06;0.91;-0.23;-1.19;3.43;6.30
2248;-1.78;-9.68;0.78;-0.06;0.91;-0.23;1.05;1.89;6.09
2257;-1.65;-9.49;0.78;-0.06;0.91;-0.23;3.36;1.12;4.41
2266;-1.49;-9.55;0.67;-0.04;0.91;-0.23;4.97;0.98;3.50
2275;-1.45;-9.83;0.75;-0.04;0.91;-0.23;5.46;2.24;3.22
2283;-1.45;-9.92;0.44;-0.04;0.91;-0.23;3.78;2.45;2.73
2292;-1.36;-9.98;0.24;-0.04;0.91;-0.23;0.91;0.28;2.73
2301;-1.29;-9.99;0.20;-0.04;0.91;-0.23;-0.77;-2.87;2.94
2310;-1.22;-9.81;0.39;-0.04;0.91;-0.23;-2.31;-5.32;3.22
2319;-1.23;-9.69;0.65;-0.04;0.91;-0.22;-3.71;-6.30;2.38
2327;-1.27;-9.60;0.78;-0.04;0.91;-0.22;-4.55;-6.93;0.70
2336;-1.24;-9.59;0.99;-0.04;0.91;-0.24;-5.11;-3.71;1.12
2345;-1.51;-9.71;1.10;-0.04;0.91;-0.24;-3.29;1.82;2.59
2354;-1.33;-9.51;1.06;-0.04;0.91;-0.24;0.56;6.37;4.62
2363;-1.16;-9.44;0.81;-0.05;0.91;-0.23;4.55;9.03;4.55
2371;-1.07;-9.54;0.60;-0.05;0.91;-0.23;8.05;8.47;4.55
2380;-0.93;-9.73;0.39;-0.05;0.91;-0.23;9.17;7.00;4.90
2389;-0.79;-9.60;0.11;-0.03;0.91;-0.23;8.40;4.27;4.62
2398;-0.70;-9.71;0.07;-0.03;0.91;-0.23;4.97;0.28;4.41
2406;-0.67;-9.66;0.21;-0.03;0.91;-0.23;1.82;-3.08;4.34
2415;-0.65;-9.52;0.20;-0.04;0.91;-0.23;0.07;-4.90;2.52
2424;-0.58;-9.47;0.30;-0.04;0.91;-0.23;-2.10;-6.30;0.07
2433;-0.81;-9.58;0.67;-0.04;0.91;-0.23;-2.94;-5.88;-1.68
2441;-0.94;-9.73;0.88;-0.05;0.92;-0.24;-0.91;-3.36;-1.61
2450;-0.97;-9.88;0.95;-0.05;0.92;-0.24;0.00;-0.14;-0.49
2459;-0.85;-9.69;0.82;-0.05;0.92;-0.24;0.42;2.66;0.21
2468;-0.93;-9.76;0.53;-0.04;0.92;-0.23;0.14;3.92;0.70
2476;-0.96;-9.71;0.51;-0.04;0.92;-0.23;1.12;3.22;0.70
2485;-0.88;-9.60;0.27;-0.04;0.92;-0.23;2.10;1.54;0.28
2494;-0.96;-9.55;0.25;-0.04;0.92;-0.23;1.82;0.07;-0.56
2503;-1.12;-9.46;0.09;-0.04;0.92;-0.23;0.98;-1.96;-2.38
2511;-1.08;-9.53;0.24;-0.04;0.92;-0.23;0.42;-3.64;-3.64
2520;-1.48;-9.62;0.29;-0.04;0.92;-0.24;1.61;-4.69;-4.13
2529;-1.72;-9.55;0.42;-0.04;0.92;-0.24;2.73;-3.71;-4.27
2538;-1.71;-9.58;0.45;-0.04;0.92;-0.24;2.59;-1.54;-4.55
2547;-1.82;-9.71;0.37;-0.05;0.91;-0.23;2.10;0.35;-5.11
2556;-1.75;-9.76;0.21;-0.05;0.91;-0.23;1.82;1.33;-4.90
2564;-1.77;-9.83;0.32;-0.05;0.91;-0.23;-0.14;1.40;-5.39
2573;-1.67;-9.84;0.23;-0.05;0.92;-0.23;-1.19;0.84;-5.60
2582;-1.64;-9.81;0.14;-0.05;0.92;-0.23;-0.91;-1.40;-5.18
2591;-1.62;-9.86;0.24;-0.05;0.92;-0.23;0.00;-3.22;-4.62
2600;-1.40;-9.93;0.30;-0.04;0.92;-0.23;0.98;-4.90;-4.34
2609;-1.13;-9.93;0.31;-0.04;0.92;-0.23;0.56;-4.48;-3.92
2617;-1.27;-9.93;0.37;-0.04;0.92;-0.23;-1.33;-4.34;-4.13
2626;-1.03;-9.93;0.39;-0.03;0.92;-0.22;-3.36;-3.57;-3.78
2635;-1.01;-9.99;0.62;-0.03;0.92;-0.22;-3.78;-1.96;-3.57
2644;-1.07;-9.84;0.90;-0.03;0.92;-0.22;-3.50;-1.05;-3.64
2652;-0.92;-9.91;0.82;-0.04;0.93;-0.22;-2.03;-0.14;-4.27
2661;-0.73;-10.14;0.96;-0.04;0.93;-0.22;-1.96;1.12;-5.18
2670;-0.69;-10.27;0.90;-0.04;0.93;-0.22;-1.61;1.33;-5.46
2679;-0.59;-10.45;1.03;-0.04;0.93;-0.22;-0.35;0.91;-5.18
2688;-0.38;-10.58;1.11;-0.04;0.93;-0.22;1.54;1.26;-3.78
2696;-0.05;-10.85;1.06;-0.04;0.92;-0.23;5.60;0.21;-2.87
2705;0.37;-10.89;0.93;-0.04;0.92;-0.23;10.85;-2.10;-2.31
2714;0.34;-10.80;0.84;-0.04;0.92;-0.23;15.61;-1.96;-1.54
2723;0.12;-10.81;0.52;-0.04;0.92;-0.21;16.10;-4.06;-1.96
2732;0.27;-10.95;0.78;-0.04;0.92;-0.21;15.47;-5.04;-3.29
2740;0.15;-10.95;0.93;-0.04;0.92;-0.21;12.88;-3.85;-3.36
2749;0.17;-11.03;1.04;-0.05;0.93;-0.22;8.61;-0.77;-2.10
2758;0.27;-10.96;1.27;-0.05;0.93;-0.22;3.92;2.38;-0.98
2767;0.47;-10.87;1.37;-0.05;0.93;-0.22;-0.84;4.41;0.49
2775;0.75;-10.87;1.64;-0.04;0.92;-0.23;-4.48;7.28;2.52
2784;0.90;-10.52;1.66;-0.04;0.92;-0.23;-7.21;10.71;4.34
2793;0.94;-10.37;1.43;-0.04;0.92;-0.23;-10.08;13.09;4.48
2802;1.12;-10.10;1.28;-0.04;0.92;-0.21;-13.44;14.84;2.24
2811;0.83;-9.94;1.23;-0.04;0.92;-0.21;-20.02;15.54;-0.70
2820;0.74;-9.91;1.16;-0.04;0.92;-0.21;-28.28;13.72;-4.41
2828;0.73;-10.13;1.14;-0.06;0.92;-0.22;-32.27;12.46;-6.30
2837;0.50;-9.93;1.67;-0.06;0.92;-0.22;-31.50;11.76;-7.91
2846;0.47;-10.05;1.82;-0.06;0.92;-0.22;-27.93;10.92;-10.08
2855;0.66;-10.07;2.01;-0.05;0.91;-0.24;-23.66;12.04;-10.64
2864;0.95;-10.36;1.95;-0.05;0.91;-0.24;-20.86;10.15;-13.16
2872;1.80;-10.77;2.02;-0.05;0.91;-0.24;-18.55;1.75;-15.89
2881;2.51;-11.07;2.30;-0.07;0.92;-0.23;-16.31;-12.81;-15.40
2890;2.86;-9.20;2.49;-0.07;0.92;-0.23;-13.65;-31.15;-12.95
2899;3.10;-10.49;2.67;-0.07;0.92;-0.23;-13.23;-55.44;-9.45
2908;3.18;-9.71;3.10;-0.07;0.91;-0.23;-10.50;-85.40;-5.88
2916;3.28;-8.61;3.82;-0.07;0.91;-0.23;-8.40;-113.33;-5.53
2925;3.09;-6.86;4.21;-0.07;0.91;-0.23;-20.86;-137.62;-1.47
2934;-1.02;-6.02;-4.36;-0.05;0.92;-0.23;-31.99;-213.92;-9.10
2943;0.62;-1.28;3.07;-0.05;0.92;-0.23;-54.74;-194.81;-20.93
2952;-3.47;1.18;6.32;-0.05;0.92;-0.23;-94.36;-189.42;-60.20
2960;-5.19;4.90;7.77;-0.09;0.90;-0.25;-138.88;-158.13;-125.44
2969;-8.42;6.99;10.09;-0.09;0.90;-0.25;-169.82;-83.23;-182.28
2978;-10.12;6.30;9.99;-0.14;0.87;-0.26;-160.72;-35.56;-233.10
2987;-11.67;5.14;7.78;-0.14;0.87;-0.26;-97.09;8.61;-282.80
2995;-14.52;0.23;6.58;-0.14;0.87;-0.26;14.91;92.68;-321.30
3004;-18.54;-6.38;2.65;-0.18;0.88;-0.28;106.19;213.22;-317.03
3013;-24.49;-15.73;-5.17;-0.18;0.88;-0.28;106.54;321.65;-261.73
3022;-28.71;-31.08;-15.46;-0.18;0.88;-0.28;29.68;366.10;-144.55
3031;-24.17;-47.13;-26.21;-0.17;0.88;-0.28;-69.16;298.62;-40.04
3040;-11.70;-46.34;-34.49;-0.17;0.88;-0.28;72.73;187.04;112.14
3048;-5.07;-24.69;-36.90;-0.17;0.88;-0.28;350.98;15.61;333.27
3057;-0.75;-4.68;-29.56;-0.10;0.88;-0.24;452.76;-235.06;416.29
3066;-0.43;10.27;-17.14;-0.10;0.88;-0.24;330.68;-380.52;238.84
3075;-6.47;5.71;-0.87;-0.10;0.88;-0.24;63.42;-351.12;17.50
3084;-11.21;3.86;12.27;-0.11;0.90;-0.20;-223.37;-235.27;-148.19
3093;-14.53;-1.30;21.19;-0.11;0.90;-0.20;-370.65;-109.90;-175.42
3102;-15.18;-7.83;23.96;-0.11;0.90;-0.20;-309.61;10.43;-119.91
3110;-14.39;-11.73;20.39;-0.16;0.89;-0.26;-137.41;83.79;-23.45
3119;-13.40;-13.70;14.10;-0.16;0.89;-0.26;67.06;99.40;53.06
3128;-11.13;-13.32;6.95;-0.16;0.89;-0.26;167.09;96.46;106.12
3137;-7.24;-10.65;1.26;-0.13;0.89;-0.24;177.59;79.31;129.71
3146;-3.27;-7.88;-2.58;-0.13;0.89;-0.24;129.15;60.83;123.06
3155;-1.13;-5.37;-4.92;-0.13;0.89;-0.24;67.97;39.97;96.46
3163;-0.85;-5.31;-4.64;-0.10;0.90;-0.24;18.90;17.57;53.83
3172;-1.00;-6.94;-3.23;-0.10;0.90;-0.24;-18.34;-3.36;15.47
3181;-1.28;-7.92;-1.63;-0.10;0.90;-0.24;-48.72;-16.73;-7.07
3190;-1.75;-8.92;0.03;-0.09;0.89;-0.23;-55.02;-22.82;-14.28
3199;-1.99;-9.32;1.49;-0.09;0.89;-0.23;-49.21;-25.13;-11.62
3207;-2.13;-9.60;2.73;-0.09;0.89;-0.23;-36.82;-22.19;-7.35
3216;-1.53;-9.63;3.43;-0.11;0.90;-0.24;-29.33;-13.44;-3.22
3225;-1.56;-9.23;3.07;-0.11;0.90;-0.24;-26.88;-5.46;1.05
3234;-1.59;-9.03;2.97;-0.11;0.90;-0.24;-22.75;-2.17;-0.21
3243;-2.18;-9.07;2.67;-0.10;0.89;-0.25;-20.09;-0.84;-3.43
3252;-2.66;-9.20;2.43;-0.10;0.89;-0.25;-23.80;-0.63;-7.91
3260;-3.03;-9.33;2.45;-0.11;0.90;-0.24;-28.07;1.75;-10.08
3269;-3.48;-9.59;2.22;-0.11;0.90;-0.24;-24.29;4.76;-7.63
3278;-3.63;-9.93;2.15;-0.11;0.90;-0.24;-13.09;8.33;-1.47
3287;-3.63;-10.16;1.74;-0.11;0.89;-0.25;-0.35;14.07;7.28
3296;-3.55;-10.21;1.18;-0.11;0.89;-0.25;10.43;17.29;14.07
3304;-3.45;-9.96;0.66;-0.11;0.89;-0.25;13.16;17.92;18.83
3313;-3.22;-9.57;0.24;-0.10;0.90;-0.25;13.65;15.12;16.94
3322;-3.07;-9.54;0.00;-0.10;0.90;-0.25;5.67;10.64;12.18
3331;-3.05;-9.53;0.06;-0.10;0.90;-0.25;-3.01;6.51;7.70
3340;-3.53;-9.46;0.45;-0.11;0.90;-0.26;-9.17;1.89;4.41
3348;-3.42;-9.27;0.95;-0.11;0.90;-0.26;-10.50;-0.49;4.27
3357;-3.68;-9.13;1.29;-0.11;0.90;-0.26;-6.79;-0.21;5.74
3366;-3.88;-8.93;1.77;-0.11;0.89;-0.26;-0.70;1.75;7.07
3375;-3.79;-8.81;1.77;-0.11;0.89;-0.26;2.59;6.86;8.40
3384;-3.49;-8.64;1.74;-0.11;0.89;-0.26;4.48;13.23;7.98
3392;-3.32;-8.76;1.38;-0.10;0.89;-0.27;4.13;20.58;5.32
3401;-3.08;-9.12;0.73;-0.10;0.89;-0.27;1.68;24.71;1.26
3410;-2.97;-9.49;0.22;-0.10;0.89;-0.27;-1.89;21.84;-0.84
3419;-2.89;-9.79;0.09;-0.10;0.88;-0.25;-5.25;16.38;-3.22
3428;-2.76;-9.99;0.17;-0.10;0.88;-0.25;-9.10;10.64;-5.04
3437;-2.79;-10.01;0.62;-0.10;0.88;-0.25;-11.48;5.11;-5.25
3446;-2.87;-10.02;1.03;-0.10;0.89;-0.25;-10.08;0.14;-4.41
3454;-3.08;-10.18;1.66;-0.10;0.89;-0.25;-8.12;-1.40;-2.24
3463;-3.18;-10.01;2.06;-0.10;0.89;-0.25;-8.12;0.56;1.05
3472;-3.22;-9.64;2.27;-0.10;0.89;-0.25;-6.44;1.96;3.57
3481;-3.08;-9.32;2.35;-0.10;0.89;-0.25;-1.68;2.87;4.20
3490;-3.04;-9.18;2.38;-0.10;0.89;-0.25;1.26;4.76;4.34
3498;-2.72;-9.15;2.29;-0.09;0.89;-0.26;2.73;8.68;2.73
3507;-2.66;-9.30;1.75;-0.09;0.89;-0.26;0.49;11.13;0.07
3516;-2.83;-9.40;1.48;-0.09;0.89;-0.26;-2.38;11.48;-2.59
3525;-2.63;-9.31;1.34;-0.09;0.89;-0.26;-5.46;10.92;-1.61
3534;-2.96;-9.44;1.30;-0.09;0.89;-0.26;-6.79;8.26;-1.12
3543;-3.20;-9.50;1.43;-0.09;0.89;-0.24;-5.46;5.95;1.47
3552;-3.31;-9.33;1.51;-0.09;0.89;-0.24;-3.57;3.57;3.43
3560;-3.31;-9.29;1.76;-0.09;0.89;-0.24;0.35;2.66;4.76
3569;-3.27;-9.22;1.82;-0.10;0.89;-0.26;2.66;4.48;6.09
3578;-3.19;-9.36;1.43;-0.10;0.89;-0.26;4.97;8.05;6.65
3587;-3.17;-9.48;1.06;-0.10;0.89;-0.26;4.97;9.52;5.74
3596;-3.10;-9.53;0.67;-0.10;0.89;-0.26;3.99;8.12;4.20
3604;-2.96;-9.56;0.57;-0.10;0.89;-0.26;2.45;4.34;3.08
3613;-3.04;-9.52;0.69;-0.10;0.89;-0.26;0.14;0.70;2.59
3622;-2.96;-9.30;0.98;-0.09;0.89;-0.25;-2.80;-2.03;1.68
3631;-2.97;-9.24;1.47;-0.09;0.89;-0.25;-6.72;-1.05;-0.42
3640;-3.01;-9.26;1.39;-0.09;0.89;-0.25;-9.94;2.38;-1.75
3648;-3.01;-9.45;1.50;-0.09;0.89;-0.25;-9.38;4.27;-1.68
3657;-2.92;-9.63;1.24;-0.09;0.89;-0.25;-6.86;6.09;-0.07
3666;-3.04;-9.87;0.95;-0.09;0.89;-0.25;-3.85;6.09;1.96
3675;-2.83;-10.13;0.85;-0.10;0.89;-0.25;-1.47;4.13;3.36
3684;-2.81;-10.27;0.54;-0.10;0.89;-0.25;-0.84;1.47;5.04
3692;-2.78;-10.05;0.60;-0.10;0.89;-0.25;-2.10;-2.59;6.16
3701;-2.69;-9.66;0.61;-0.09;0.89;-0.26;-3.22;-7.49;5.88
3710;-2.64;-9.61;1.28;-0.09;0.89;-0.26;-4.76;-8.96;4.27
3719;-2.76;-9.57;1.38;-0.09;0.89;-0.26;-6.93;-8.40;2.45
3728;-2.82;-9.55;1.36;-0.09;0.89;-0.26;-9.45;-6.72;0.98
3736;-2.90;-9.81;1.55;-0.09;0.89;-0.26;-11.62;-3.85;0.56
3745;-2.92;-10.00;1.17;-0.09;0.89;-0.26;-12.81;-0.28;0.98
3754;-3.02;-10.15;0.97;-0.09;0.89;-0.27;-12.81;1.19;3.01
3763;-2.86;-10.32;0.67;-0.09;0.89;-0.27;-10.92;1.68;4.76
3772;-2.91;-10.44;0.31;-0.09;0.89;-0.27;-10.71;0.00;7.00
3781;-2.94;-10.34;0.14;-0.09;0.89;-0.26;-10.92;-4.20;8.40
3789;-3.09;-10.27;0.06;-0.09;0.89;-0.26;-12.25;-9.10;8.26
3798;-3.11;-9.90;0.34;-0.09;0.89;-0.26;-15.54;-15.33;8.33
3807;-3.24;-9.55;0.65;-0.10;0.89;-0.25;-18.83;-19.95;6.72
3816;-3.37;-9.46;1.30;-0.10;0.89;-0.25;-22.12;-21.14;3.71
3825;-3.70;-9.42;1.56;-0.10;0.89;-0.26;-26.53;-20.93;1.47
3834;-3.74;-9.55;1.87;-0.10;0.89;-0.26;-27.58;-20.16;2.17
3842;-3.96;-9.59;2.30;-0.10;0.89;-0.26;-27.51;-17.15;5.11
3851;-3.89;-9.73;2.65;-0.09;0.89;-0.27;-25.55;-11.69;9.94
3860;-4.01;-9.74;2.62;-0.09;0.89;-0.27;-16.24;-7.98;15.33
3869;-3.95;-9.66;2.56;-0.09;0.89;-0.27;-2.87;-7.77;23.17
3878;-3.83;-9.60;2.28;-0.09;0.88;-0.28;8.26;-8.89;28.07
3886;-3.79;-9.40;1.87;-0.09;0.88;-0.28;15.33;-8.47;30.52
3895;-3.55;-9.22;1.46;-0.09;0.88;-0.28;17.22;-8.33;29.68
3904;-3.37;-9.06;1.18;-0.09;0.88;-0.26;14.91;-7.91;26.74
3913;-3.24;-8.80;1.00;-0.09;0.88;-0.26;11.55;-9.03;22.05
3922;-2.94;-8.59;0.81;-0.09;0.88;-0.26;9.24;-11.90;16.87
3930;-2.79;-8.47;0.76;-0.09;0.89;-0.28;6.16;-13.79;9.80
3939;-2.71;-8.59;0.80;-0.09;0.89;-0.28;0.91;-13.02;3.50
3948;-2.99;-8.72;0.98;-0.09;0.89;-0.28;-5.88;-11.41;-0.70
3957;-3.35;-9.18;1.06;-0.09;0.88;-0.27;-11.41;-11.76;-0.91
3966;-3.40;-9.38;1.29;-0.09;0.88;-0.27;-14.14;-12.74;2.52
3975;-3.32;-9.42;1.56;-0.09;0.88;-0.27;-9.38;-13.09;8.96
3983;-3.42;-9.39;1.75;-0.09;0.89;-0.28;-3.22;-13.86;14.35
3992;-3.34;-9.31;1.90;-0.09;0.89;-0.28;5.11;-15.12;18.76
4001;-3.05;-9.25;1.86;-0.09;0.89;-0.28;12.46;-15.68;20.16
4010;-2.66;-8.93;2.01;-0.08;0.89;-0.27;15.96;-11.62;19.88
4019;-2.48;-8.89;1.80;-0.08;0.89;-0.27;13.79;-7.98;17.36
4027;-2.50;-8.80;1.67;-0.08;0.89;-0.27;10.01;-5.18;13.44
4036;-2.43;-8.87;1.57;-0.08;0.89;-0.26;9.17;-3.64;8.26
4045;-2.55;-8.97;1.66;-0.08;0.89;-0.26;5.81;-0.35;1.68
4054;-2.79;-9.10;1.59;-0.08;0.89;-0.26;7.70;1.26;-0.28
4063;-2.82;-9.20;1.51;-0.09;0.89;-0.25;10.08;1.40;1.40
4071;-2.68;-9.40;1.42;-0.09;0.89;-0.25;10.50;0.07;5.88
4080;-2.71;-9.41;1.08;-0.09;0.89;-0.25;11.48;-4.83;10.85
4089;-2.67;-9.55;1.04;-0.08;0.90;-0.25;14.56;-10.22;12.95
4098;-2.68;-9.57;1.00;-0.08;0.90;-0.25;16.10;-14.07;13.37
4107;-2.84;-9.70;1.18;-0.08;0.90;-0.26;15.68;-14.77;12.53
4115;-2.80;-9.70;1.29;-0.08;0.89;-0.26;12.32;-11.48;12.18
4124;-2.91;-9.80;1.44;-0.08;0.89;-0.26;6.16;-6.79;11.06
4133;-2.84;-9.67;1.47;-0.08;0.89;-0.27;3.71;-1.96;10.43
4142;-2.86;-9.56;1.25;-0.08;0.89;-0.27;5.32;1.89;8.54
4151;-2.81;-9.56;1.32;-0.08;0.89;-0.27;11.20;4.41;7.98
4160;-2.68;-9.32;1.06;-0.08;0.90;-0.25;17.71;3.36;4.27
4168;-2.38;-9.27;1.10;-0.08;0.90;-0.25;22.68;0.70;0.98
4177;-2.23;-9.33;1.00;-0.08;0.90;-0.25;21.56;-1.61;-0.28
4186;-2.45;-9.59;0.94;-0.07;0.91;-0.26;16.73;-4.69;-0.63
4195;-2.43;-9.91;0.80;-0.07;0.91;-0.26;6.93;-7.07;-1.40
4204;-2.54;-10.13;0.97;-0.07;0.91;-0.26;-4.69;-7.84;-0.63
4212;-2.59;-10.36;1.06;-0.08;0.91;-0.26;-16.52;-5.67;0.70
4221;-2.67;-10.42;1.20;-0.08;0.91;-0.26;-22.47;-2.87;2.52
4230;-2.64;-10.32;1.34;-0.08;0.91;-0.26;-21.07;-1.40;3.85
4239;-2.63;-10.32;1.23;-0.08;0.90;-0.27;-10.92;-3.08;5.67
4248;-2.68;-10.33;1.21;-0.08;0.90;-0.27;7.07;-5.95;6.30
4257;-2.83;-10.12;1.23;-0.08;0.90;-0.27;23.31;-8.12;7.00
4265;-2.61;-9.78;1.27;-0.08;0.91;-0.26;30.73;-8.19;5.67
4274;-2.42;-9.53;1.06;-0.08;0.91;-0.26;30.03;-7.84;4.20
4283;-2.07;-9.27;1.02;-0.08;0.91;-0.26;22.75;-6.79;1.05
4292;-2.23;-9.34;0.99;-0.08;0.91;-0.25;10.29;-4.06;-2.80
4301;-2.25;-9.43;0.80;-0.08;0.91;-0.25;-3.57;-1.40;-4.41
4310;-2.27;-9.58;0.67;-0.08;0.91;-0.25;-13.30;2.10;-4.62
4318;-2.44;-9.65;0.78;-0.08;0.92;-0.26;-21.84;2.45;-3.99
4327;-2.52;-9.69;0.90;-0.08;0.92;-0.26;-27.02;0.07;-2.59
4336;-2.38;-9.81;1.06;-0.08;0.92;-0.26;-26.39;-2.52;-1.54
4345;-2.31;-9.97;1.41;-0.07;0.90;-0.25;-21.28;-3.64;-0.42
4354;-2.17;-9.81;1.56;-0.07;0.90;-0.25;-13.23;-3.22;1.33
4362;-2.00;-9.79;1.79;-0.07;0.90;-0.25;-6.86;1.89;3.43
4371;-2.30;-9.69;1.67;-0.07;0.91;-0.26;-2.45;4.20;0.98
4380;-2.12;-9.48;1.75;-0.07;0.91;-0.26;0.91;4.27;-0.07
4389;-1.88;-9.55;1.64;-0.07;0.91;-0.26;1.89;5.39;-2.80
4397;-2.23;-9.72;1.53;-0.07;0.90;-0.25;1.68;4.48;-4.76
4406;-2.24;-9.80;1.65;-0.07;0.90;-0.25;-2.66;4.83;-5.32
4415;-2.45;-9.86;1.69;-0.07;0.90;-0.27;-9.52;5.74;-3.92
4424;-1.94;-9.97;1.68;-0.08;0.90;-0.27;-34.37;10.29;1.61
4432;-1.72;-9.80;1.69;-0.08;0.90;-0.27;-19.67;15.33;2.73
4441;-1.79;-9.86;1.77;-0.08;0.89;-0.26;-20.79;21.35;1.82
4450;-1.49;-9.70;1.47;-0.08;0.89;-0.26;-18.20;23.87;-3.36
4459;-3.91;-8.32;1.54;-0.08;0.89;-0.26;-17.85;13.30;-9.03
4468;-0.75;-10.11;1.40;-0.08;0.90;-0.28;-9.87;4.06;-9.59
4476;-1.18;-9.77;1.62;-0.08;0.90;-0.28;-3.36;4.06;-13.30
4485;-1.44;-9.86;1.63;-0.08;0.90;-0.28;-1.47;4.55;-13.44
4494;-2.15;-9.84;1.56;-0.08;0.89;-0.27;2.59;2.03;-12.88
4503;-0.91;-10.11;1.87;-0.08;0.89;-0.27;3.50;3.29;-13.72
4512;0.49;-11.16;1.77;-0.08;0.89;-0.27;4.69;33.53;-17.57
4520;-0.75;-10.88;2.40;-0.08;0.89;-0.27;21.21;54.39;-43.54
4529;-0.78;-10.29;1.96;-0.08;0.89;-0.27;-22.89;19.88;-45.85
4538;-3.28;-9.15;1.57;-0.08;0.89;-0.27;4.13;38.78;-35.84
4547;-2.47;-10.09;0.80;-0.09;0.89;-0.27;5.04;53.13;-23.17
4555;-2.51;-10.04;1.63;-0.09;0.89;-0.27;8.68;20.44;-16.17
4564;-2.53;-9.66;1.92;-0.09;0.89;-0.27;12.32;14.14;-14.35
4573;-2.53;-9.42;1.94;-0.08;0.88;-0.28;12.60;5.32;-13.79
4582;-2.33;-9.44;1.69;-0.08;0.88;-0.28;10.57;-3.78;-14.28
4591;-2.19;-9.67;2.00;-0.08;0.88;-0.28;8.05;-4.62;-8.54
4599;-2.22;-9.61;2.30;-0.10;0.90;-0.28;5.04;3.50;-1.05
4608;-2.35;-9.63;2.15;-0.10;0.90;-0.28;1.68;5.88;4.06
4617;-2.26;-9.73;2.05;-0.10;0.90;-0.28;3.50;6.51;11.06
4626;-2.30;-9.66;3.59;-0.09;0.89;-0.29;5.11;3.99;12.18
4634;-2.37;-9.60;1.88;-0.09;0.89;-0.29;7.98;1.05;12.60
4643;-2.38;-9.65;1.82;-0.09;0.89;-0.29;10.22;-0.49;11.76
4652;-2.25;-9.88;1.72;-0.09;0.89;-0.28;10.99;1.33;11.76
4661;-2.08;-9.86;1.43;-0.09;0.89;-0.28;13.93;4.27;13.02
4670;-1.77;-9.73;1.33;-0.09;0.89;-0.28;15.61;7.07;11.69
4678;-1.80;-9.81;0.99;-0.08;0.89;-0.26;13.93;6.09;7.35
4687;-1.67;-10.04;0.93;-0.08;0.89;-0.26;12.11;5.53;3.29
4696;-2.05;-9.84;1.19;-0.08;0.89;-0.26;9.24;4.48;2.66
4705;-2.44;-9.45;1.23;-0.08;0.89;-0.27;3.64;3.36;6.02
4713;-2.40;-9.50;1.44;-0.08;0.89;-0.27;0.00;2.66;10.22
4722;-2.28;-9.47;1.35;-0.08;0.89;-0.27;-0.35;2.10;11.48
4731;-2.16;-9.37;1.31;-0.08;0.89;-0.26;3.99;-0.35;10.36
4740;-1.99;-9.35;1.09;-0.08;0.89;-0.26;8.54;-4.97;8.68
4748;-2.06;-9.46;1.06;-0.08;0.89;-0.27;13.09;-8.68;7.21
4757;-1.99;-9.38;1.00;-0.08;0.89;-0.27;13.30;-11.41;7.70
4766;-1.77;-9.47;0.91;-0.08;0.89;-0.27;7.07;-12.25;8.61
4775;-1.79;-9.49;1.15;-0.07;0.89;-0.27;0.00;-10.99;9.87
4783;-1.66;-9.40;1.28;-0.07;0.89;-0.27;-6.44;-9.66;9.94
4792;-1.74;-9.41;1.33;-0.07;0.89;-0.27;-10.15;-7.56;8.75
4801;-1.49;-9.70;1.60;-0.08;0.89;-0.26;-9.73;-6.09;5.67
4810;-1.36;-9.78;1.46;-0.08;0.89;-0.26;-5.18;-4.90;3.15
4818;-1.37;-9.75;1.49;-0.08;0.89;-0.26;-0.42;-5.32;2.45
4827;-1.48;-9.67;1.73;-0.08;0.88;-0.26;3.08;-5.39;2.31
4836;-1.57;-9.60;1.87;-0.08;0.88;-0.26;3.15;-4.69;3.64
4845;-1.59;-9.51;1.90;-0.08;0.88;-0.26;2.66;-3.99;4.20
4853;-1.39;-9.40;1.98;-0.07;0.89;-0.26;0.98;-2.94;4.41
4862;-1.18;-9.45;1.95;-0.07;0.89;-0.26;-2.17;-1.89;3.15
4871;-1.27;-9.53;2.07;-0.07;0.89;-0.26;-4.27;-0.77;2.45
4880;-1.28;-9.54;2.18;-0.07;0.89;-0.26;-3.01;0.07;2.31
4888;-1.21;-9.56;2.05;-0.07;0.89;-0.26;-1.75;0.28;1.68
4897;-1.01;-9.63;2.12;-0.07;0.89;-0.26;-0.98;2.03;-0.21
4906;-1.10;-9.63;1.98;-0.07;0.89;-0.26;-0.49;3.64;-1.19
4915;-1.21;-9.60;1.93;-0.07;0.89;-0.26;-0.07;5.11;-2.73
4923;-1.31;-9.49;1.79;-0.07;0.89;-0.26;-1.68;5.25;-3.78
4932;-1.63;-9.66;1.70;-0.07;0.88;-0.26;-0.07;5.67;-3.85
4941;-1.82;-9.73;1.63;-0.07;0.88;-0.26;0.63;6.51;-2.66
4950;-1.67;-9.86;1.61;-0.07;0.88;-0.26;-0.21;7.07;-1.68
4958;-1.77;-9.93;1.67;-0.06;0.89;-0.26;0.56;8.05;-0.77
4967;-0.01;-10.19;1.38;-0.06;0.89;-0.26;1.82;5.18;0.35
4976;-1.62;-10.24;1.61;-0.06;0.89;-0.26;6.16;2.66;1.96
4985;-1.53;-10.22;1.44;-0.07;0.89;-0.26;11.48;2.03;2.03
4994;-1.37;-10.33;1.28;-0.07;0.89;-0.26;14.07;0.35;1.12
5002;-1.19;-10.38;1.21;-0.07;0.89;-0.26;14.91;0.07;1.12
5011;-1.25;-10.35;1.15;-0.08;0.88;-0.27;12.32;0.70;2.73
5020;-1.20;-10.30;1.20;-0.08;0.88;-0.27;7.21;3.64;5.46
5029;-1.39;-10.25;1.19;-0.08;0.88;-0.27;-0.42;5.60;8.75
5037;-1.45;-10.28;1.44;-0.07;0.89;-0.27;-5.53;7.07;12.32
5046;-1.62;-10.24;1.62;-0.07;0.89;-0.27;-8.19;6.79;15.89
5055;-1.49;-10.15;1.47;-0.07;0.89;-0.27;-6.93;9.24;17.22
5064;-1.39;-10.14;1.31;-0.05;0.88;-0.27;-5.95;9.59;16.66
5073;-1.06;-10.29;0.99;-0.05;0.88;-0.27;-5.88;7.84;16.03
5081;-0.85;-10.38;0.79;-0.05;0.88;-0.27;-4.41;5.53;15.96
5090;-0.45;-10.57;0.92;-0.04;0.89;-0.26;-0.14;2.73;15.96
5099;-0.32;-10.67;1.12;-0.04;0.89;-0.26;1.40;-1.54;15.26
5108;-0.16;-10.61;1.38;-0.04;0.89;-0.26;-0.21;-2.80;12.95
5117;-0.32;-10.50;1.52;-0.04;0.88;-0.26;-6.09;-0.42;11.48
5125;-0.29;-10.50;2.11;-0.04;0.88;-0.26;-11.34;2.24;9.52
5134;0.01;-10.29;2.51;-0.04;0.88;-0.26;-13.65;7.70;9.45
5143;-0.03;-10.03;2.44;-0.04;0.88;-0.26;-13.72;14.77;9.24
5152;0.09;-9.93;2.42;-0.04;0.88;-0.26;-14.21;16.45;6.86
5161;0.27;-10.11;2.43;-0.04;0.88;-0.27;-14.07;14.14;2.17
5169;0.27;-10.29;2.57;-0.04;0.88;-0.27;-13.51;11.13;-0.14
5178;0.25;-10.36;2.77;-0.04;0.88;-0.27;-9.03;8.40;-5.39
5187;0.70;-10.68;3.01;-0.04;0.88;-0.27;-7.28;8.19;-2.17
5196;0.82;-10.70;3.01;-0.04;0.88;-0.27;-7.63;10.01;-0.49
5204;1.41;-10.77;2.89;-0.04;0.88;-0.27;-9.73;10.92;-0.63
5213;1.78;-10.97;3.06;-0.04;0.87;-0.27;-16.17;6.37;-1.40
5222;2.40;-10.55;3.17;-0.04;0.87;-0.27;-20.58;1.26;-1.61
5231;3.41;-10.24;3.39;-0.04;0.87;-0.27;-29.61;-6.16;-5.25
5240;4.58;-9.95;3.94;-0.03;0.86;-0.27;-47.39;-26.46;-13.79
5248;5.20;-9.05;4.85;-0.03;0.86;-0.27;-66.43;-51.03;-25.83
5257;4.76;-7.86;6.40;-0.03;0.86;-0.27;-72.45;-78.75;-37.38
5266;3.36;-6.55;8.83;-0.05;0.87;-0.29;-71.12;-99.96;-49.91
5275;2.46;-4.82;12.70;-0.05;0.87;-0.29;-77.07;-105.49;-60.06
5284;-1.44;-3.67;14.54;-0.05;0.87;-0.29;-85.47;-106.89;-72.03
5293;-4.57;-2.62;17.70;-0.08;0.86;-0.30;-85.40;-70.42;-79.17
5301;-6.23;-0.88;19.89;-0.08;0.86;-0.30;-68.60;0.28;-79.24
5310;-7.90;0.34;18.83;-0.08;0.86;-0.30;-45.43;100.03;-86.03
5319;-11.28;1.51;15.53;-0.09;0.85;-0.31;-10.64;184.52;-110.81
5328;-15.02;1.18;8.79;-0.09;0.85;-0.31;27.44;249.83;-139.72
5337;-17.85;-3.38;-0.33;-0.09;0.85;-0.31;42.14;288.96;-166.60
5346;-21.99;-10.06;-6.51;-0.07;0.83;-0.32;23.31;295.47;-184.24
5354;-23.50;-21.08;-13.27;-0.07;0.83;-0.32;-18.06;276.36;-159.39
5363;-23.49;-36.39;-21.41;-0.07;0.83;-0.32;33.53;254.38;-87.29
5372;-17.41;-44.09;-33.19;-0.09;0.84;-0.30;209.93;192.01;99.12
5381;-7.07;-31.59;-43.95;-0.09;0.84;-0.30;456.68;81.76;307.23
5390;1.08;-4.53;-40.29;-0.09;0.84;-0.30;478.17;-136.36;369.18
5399;3.22;7.16;-22.81;-0.03;0.88;-0.23;222.04;-276.64;145.81
5408;-1.47;7.52;-5.40;-0.03;0.88;-0.23;-227.57;-223.02;-40.11
5417;-6.78;4.73;9.61;-0.01;0.86;-0.25;-417.13;-122.43;-130.06
5425;-10.87;-1.26;18.14;-0.01;0.86;-0.25;-387.87;-37.45;-136.36
5434;-12.79;-6.49;21.80;-0.01;0.86;-0.25;-179.20;-24.08;-84.49
5443;-12.61;-10.20;21.16;-0.06;0.85;-0.29;16.73;-11.13;-5.39
5452;-9.31;-10.40;17.18;-0.06;0.85;-0.29;129.22;11.62;53.97
5461;-6.75;-8.62;11.89;-0.06;0.85;-0.29;156.59;43.12;71.61
5469;-3.09;-7.21;3.84;-0.04;0.85;-0.27;145.46;58.66;72.45
5478;-0.65;-7.00;-0.93;-0.04;0.85;-0.27;127.19;54.60;61.46
5487;-0.37;-6.96;-4.77;-0.04;0.85;-0.27;91.49;29.82;48.02
5496;0.32;-7.29;-4.64;-0.02;0.87;-0.25;27.72;5.18;29.40
5505;-0.40;-6.65;-2.00;-0.02;0.87;-0.25;-17.50;-10.99;0.07
5513;-1.18;-7.19;0.53;-0.02;0.87;-0.25;-40.32;-18.48;-12.67
5522;-1.82;-8.54;2.68;-0.02;0.86;-0.26;-37.52;-15.12;-14.84
5531;-2.16;-9.54;3.77;-0.02;0.86;-0.26;-24.78;-9.17;-14.91
5540;-2.20;-10.11;3.71;-0.02;0.86;-0.26;-3.78;-3.71;-4.83
5549;-1.77;-10.19;3.14;-0.03;0.86;-0.27;13.86;1.61;4.97
5558;-1.31;-10.14;2.00;-0.03;0.86;-0.27;17.08;4.48;8.96
5567;-1.23;-10.40;0.91;-0.03;0.86;-0.27;7.00;2.59;5.81
5575;-1.26;-10.47;0.62;-0.03;0.86;-0.27;0.28;-2.80;2.38
5584;-1.15;-10.37;0.57;-0.03;0.86;-0.27;-5.53;-7.21;-0.91
5593;-1.48;-10.37;0.50;-0.03;0.86;-0.27;-10.85;-10.85;-3.29
5602;-1.80;-10.06;0.95;-0.01;0.86;-0.26;-14.35;-14.14;-3.15
5611;-2.04;-9.63;1.29;-0.01;0.86;-0.26;-17.99;-12.11;-2.10
5619;-2.45;-9.27;1.61;-0.01;0.86;-0.26;-18.76;-9.94;-2.94
5628;-2.65;-9.32;2.23;-0.03;0.86;-0.26;-15.12;-8.96;-3.85
5637;-2.87;-9.51;2.43;-0.03;0.86;-0.26;-5.88;-5.81;-2.24
5646;-2.83;-10.01;2.23;-0.03;0.86;-0.26;3.08;-2.52;0.07
5655;-3.01;-10.33;1.87;-0.02;0.86;-0.26;6.58;-0.07;2.87
5664;-2.83;-10.15;1.56;-0.02;0.86;-0.26;5.67;0.77;4.62
5672;-2.79;-9.71;1.21;-0.02;0.86;-0.27;3.78;-0.63;5.25
5681;-2.64;-9.48;1.23;-0.03;0.87;-0.27;1.82;-3.57;3.92
5690;-2.74;-9.37;1.49;-0.03;0.87;-0.27;-1.82;-4.83;1.89
5699;-2.81;-9.04;1.73;-0.02;0.86;-0.26;-3.78;-5.39;0.00
5708;-2.69;-9.04;2.00;-0.02;0.86;-0.26;-2.45;-4.90;-0.42
5716;-2.73;-9.39;2.00;-0.02;0.86;-0.26;0.42;17.15;0.21
5725;-2.73;-9.57;1.75;-0.03;0.86;-0.25;1.54;3.29;1.68
5734;-2.62;-9.49;1.45;-0.03;0.86;-0.25;1.89;4.20;2.66
5743;-2.39;-9.35;1.65;-0.03;0.86;-0.25;1.05;4.06;2.94
5752;-2.40;-9.37;1.71;-0.03;0.86;-0.26;-0.98;4.13;2.38
5760;-2.47;-9.52;1.77;-0.03;0.86;-0.26;-0.63;3.01;0.91
5769;-2.38;-9.65;1.82;-0.03;0.86;-0.26;1.26;1.61;0.56
5778;-2.33;-9.84;1.75;-0.03;0.87;-0.26;3.57;0.91;0.91
5787;-2.13;-10.01;1.74;-0.03;0.87;-0.26;3.36;0.98;1.19
5796;-1.97;-9.94;1.67;-0.03;0.87;-0.26;2.03;1.19;0.77
5805;-2.00;-10.12;1.78;-0.03;0.86;-0.26;0.98;1.82;0.21
5813;-2.06;-10.08;1.83;-0.03;0.86;-0.26;-0.35;2.66;0.63
5822;-2.20;-10.12;2.11;-0.03;0.86;-0.26;0.28;2.52;1.96
5831;-2.13;-9.93;2.20;-0.04;0.87;-0.25;3.85;2.17;4.55
5840;-2.24;-9.68;2.18;-0.04;0.87;-0.25;5.32;0.77;6.72
5848;-2.31;-9.45;2.18;-0.04;0.87;-0.25;6.65;-0.77;7.42
5857;-2.11;-9.31;2.13;-0.03;0.87;-0.26;7.70;-1.89;6.79
5866;-2.00;-9.31;1.65;-0.03;0.87;-0.26;5.67;-0.63;4.20
5875;-2.18;-9.45;1.26;-0.03;0.87;-0.26;2.24;-1.40;1.12
5884;-2.12;-9.82;0.95;-0.03;0.87;-0.26;-1.96;-2.59;-0.35
5892;-2.33;-9.89;1.06;-0.03;0.87;-0.26;-5.11;-2.80;-1.05
5901;-2.40;-9.96;1.09;-0.03;0.87;-0.26;-7.14;-3.64;-0.56
5910;-2.51;-9.68;1.34;-0.02;0.85;-0.27;-6.58;-4.34;-0.28
5919;-2.45;-9.54;1.65;-0.02;0.85;-0.27;-6.02;-3.71;0.00
5928;-2.62;-9.40;2.09;-0.02;0.85;-0.27;-5.25;-3.64;0.49
5936;-2.74;-9.50;2.03;-0.03;0.85;-0.25;-1.82;-4.69;2.73
5945;-2.68;-9.48;2.36;-0.03;0.85;-0.25;3.22;-4.55;4.48
5954;-2.53;-9.48;2.33;-0.03;0.85;-0.25;5.60;-2.38;5.60
5963;-2.38;-9.50;2.00;-0.02;0.87;-0.27;5.32;0.00;4.76
5972;-2.30;-9.58;1.69;-0.02;0.87;-0.27;4.48;1.12;4.27
5981;-2.35;-9.74;1.27;-0.02;0.86;-0.25;5.04;0.14;4.41
5989;-2.21;-9.60;1.34;-0.03;0.86;-0.25;5.74;-1.75;4.90
5998;-2.20;-9.63;1.48;-0.03;0.86;-0.25;6.79;-3.22;4.97
6007;-2.08;-9.55;1.62;-0.03;0.87;-0.26;5.81;-4.06;4.27
6016;-2.10;-9.45;1.70;-0.03;0.87;-0.26;4.97;-2.80;3.85
6025;-2.10;-9.29;1.91;-0.03;0.87;-0.26;2.31;-0.77;1.68
6033;-1.85;-9.32;1.82;-0.03;0.87;-0.25;-1.19;2.80;-0.63
6042;-2.15;-9.47;1.75;-0.03;0.87;-0.25;-4.34;4.13;-2.17
6051;-2.20;-9.63;1.65;-0.03;0.87;-0.25;-4.62;4.27;-2.31
6060;-2.15;-9.68;1.55;-0.03;0.87;-0.25;-5.32;2.52;-1.05
6068;-2.14;-9.66;1.69;-0.03;0.87;-0.25;-2.80;0.21;0.07
6077;-2.21;-9.58;1.71;-0.03;0.87;-0.25;-1.61;-1.19;0.77
6086;-2.14;-9.42;1.73;-0.03;0.88;-0.26;-1.05;-1.54;0.14
6095;-2.22;-9.42;1.86;-0.03;0.88;-0.26;-0.49;-0.77;-0.14
6104;-2.25;-9.49;1.80;-0.03;0.88;-0.26;1.26;0.21;0.14
6112;-2.35;-9.66;1.60;-0.03;0.87;-0.25;3.92;1.61;0.84
6121;-2.36;-9.68;1.39;-0.03;0.87;-0.25;6.65;1.89;3.22
6130;-2.29;-9.60;1.23;-0.03;0.87;-0.25;7.28;2.24;3.43
6139;-2.33;-9.73;0.82;-0.02;0.87;-0.25;6.30;1.82;3.22
6148;-2.34;-9.88;0.54;-0.02;0.87;-0.25;5.25;-0.21;3.36
6157;-2.32;-9.89;0.43;-0.02;0.87;-0.25;5.81;-4.34;4.27
6165;-2.31;-9.93;0.59;-0.02;0.87;-0.26;6.58;-6.93;3.78
6174;-2.28;-9.77;0.90;-0.02;0.87;-0.26;6.09;-9.24;4.55
6183;-2.43;-9.78;1.18;-0.02;0.87;-0.26;5.81;-8.89;5.18
6192;-2.21;-9.66;1.40;-0.03;0.88;-0.26;3.78;-8.75;3.78
6201;-2.41;-9.82;1.48;-0.03;0.88;-0.26;2.10;-7.35;3.85
6209;-2.39;-9.93;1.52;-0.03;0.88;-0.26;1.54;-6.58;3.57
6218;-2.43;-10.03;1.41;-0.03;0.88;-0.24;2.10;-6.23;4.76
6227;-2.40;-10.06;0.97;-0.03;0.88;-0.24;4.13;-6.44;5.04
6236;-2.29;-10.13;0.64;-0.03;0.88;-0.24;4.27;-8.40;5.95
6245;-2.16;-9.97;0.25;-0.03;0.88;-0.24;4.13;-13.65;6.44
6254;-2.06;-9.83;0.21;-0.03;0.88;-0.24;1.54;-18.62;6.09
6262;-2.10;-9.84;0.28;-0.03;0.88;-0.24;-5.39;-21.42;4.55
6271;-2.25;-9.89;0.54;-0.04;0.87;-0.25;-13.02;-23.24;2.66
6280;-2.61;-9.81;0.80;-0.04;0.87;-0.25;-20.23;-25.90;1.82
6289;-2.70;-9.81;1.31;-0.04;0.88;-0.25;-22.68;-27.16;2.31
6297;-2.93;-9.70;1.67;-0.04;0.88;-0.25;-19.74;-27.72;4.76
6306;-3.01;-9.81;1.79;-0.04;0.88;-0.25;-14.56;-25.34;7.35
6315;-2.94;-9.67;1.74;-0.05;0.88;-0.26;-9.24;-23.31;9.66
6324;-3.02;-9.51;1.44;-0.05;0.88;-0.26;-5.46;-23.52;12.25
6333;-3.09;-9.46;1.36;-0.05;0.88;-0.26;-1.82;-24.85;13.16
6342;-3.18;-9.57;1.37;-0.04;0.88;-0.25;-0.98;-24.71;13.44
6350;-3.06;-9.66;1.17;-0.04;0.88;-0.25;-2.38;-23.80;12.74
6359;-2.87;-9.47;0.95;-0.04;0.88;-0.25;-2.45;-23.45;12.39
6368;-3.02;-9.54;1.01;-0.04;0.88;-0.26;-1.61;-23.31;13.09
6377;-3.11;-9.57;0.75;-0.04;0.88;-0.26;0.14;-26.11;13.51
6386;-3.01;-9.63;0.87;-0.04;0.88;-0.26;3.22;-28.91;16.31
6394;-3.24;-9.66;0.90;-0.04;0.87;-0.27;8.12;-28.91;16.17
6403;-3.24;-9.49;0.90;-0.04;0.87;-0.27;8.75;-28.28;14.77
6412;-3.21;-9.62;0.94;-0.04;0.87;-0.27;7.63;-28.07;13.44
6421;-3.38;-9.91;0.80;-0.05;0.87;-0.24;6.79;-29.54;15.54
6430;-3.35;-9.80;0.77;-0.05;0.87;-0.24;9.80;-35.70;19.53
6438;-3.10;-9.60;1.01;-0.05;0.87;-0.24;15.68;-39.76;23.45
6447;-2.99;-9.37;1.23;-0.04;0.88;-0.26;19.04;-40.74;25.41
6456;-2.77;-9.28;1.22;-0.04;0.88;-0.26;20.72;-39.69;25.90
6465;-2.61;-9.22;1.08;-0.04;0.88;-0.26;23.10;-37.17;26.46
6474;-2.54;-9.28;0.94;-0.05;0.89;-0.24;21.98;-34.86;26.04
6483;-2.48;-9.41;0.81;-0.05;0.89;-0.24;19.95;-33.39;23.94
6491;-2.28;-9.35;0.94;-0.05;0.89;-0.24;15.68;-30.73;21.91
6500;-2.38;-9.40;1.18;-0.05;0.89;-0.25;10.99;-26.81;21.42
6509;-2.49;-9.46;1.31;-0.05;0.89;-0.25;9.59;-24.36;17.85
6518;-2.46;-9.34;1.36;-0.05;0.89;-0.25;12.39;-22.68;15.54
6527;-2.32;-9.45;1.31;-0.04;0.89;-0.24;16.94;-24.85;14.35
6535;-2.22;-9.38;1.44;-0.04;0.89;-0.24;19.32;-23.66;14.35
6544;-2.07;-9.32;1.47;-0.04;0.89;-0.24;16.94;-19.04;12.60
6553;-2.02;-9.27;1.21;-0.04;0.89;-0.24;12.25;-14.91;8.82
6562;-1.98;-9.26;1.31;-0.04;0.89;-0.24;8.96;-13.58;5.81
6571;-2.05;-9.50;1.28;-0.04;0.90;-0.24;10.57;-12.88;4.27
6580;-2.12;-9.64;1.29;-0.04;0.90;-0.24;11.20;-12.18;1.96
6589;-2.20;-9.86;1.13;-0.04;0.90;-0.24;8.96;-11.83;-0.21
6597;-2.25;-9.92;1.21;-0.05;0.89;-0.24;6.65;-12.74;-2.24
6606;-2.37;-10.08;1.31;-0.05;0.89;-0.24;2.59;-10.71;0.49
6615;-2.15;-10.01;1.40;-0.05;0.89;-0.24;-1.47;-5.67;5.18
6624;-2.05;-9.91;1.34;-0.04;0.90;-0.25;-2.24;-4.41;7.42
6633;-2.07;-9.82;1.12;-0.04;0.90;-0.25;1.61;-4.55;7.98
6642;-1.92;-9.74;0.96;-0.04;0.90;-0.25;5.88;-6.65;6.58
6651;-1.78;-9.71;0.71;-0.04;0.90;-0.24;10.57;-9.24;4.90
6659;-1.81;-9.80;0.55;-0.04;0.90;-0.24;12.60;-10.36;2.59
6668;-1.92;-9.76;0.73;-0.04;0.90;-0.24;10.57;-8.75;1.05
6677;-1.92;-9.51;0.67;-0.05;0.89;-0.23;5.32;-5.39;-1.47
6686;-1.95;-9.58;0.73;-0.05;0.89;-0.23;0.63;-1.75;-4.69
6695;-1.87;-9.50;0.72;-0.05;0.89;-0.23;-2.73;3.57;-8.33
6703;-2.24;-9.56;0.47;-0.05;0.91;-0.24;-6.09;6.23;-9.59
6712;-2.18;-10.02;0.08;-0.05;0.91;-0.24;-7.63;3.78;-5.18
6721;-2.00;-9.96;0.02;-0.05;0.91;-0.24;-2.52;-2.38;-0.42
6730;-1.88;-9.76;0.02;-0.05;0.90;-0.24;5.39;-8.96;3.43
6739;-1.89;-9.85;0.04;-0.05;0.90;-0.24;11.55;-15.75;3.57
6747;-2.00;-9.78;0.20;-0.05;0.90;-0.24;13.93;-18.90;1.47
6756;-1.94;-9.75;0.18;-0.05;0.90;-0.23;11.41;-20.30;-3.01
6765;-1.87;-9.85;0.34;-0.05;0.90;-0.23;5.81;-16.10;-3.99
6774;-1.95;-9.86;0.56;-0.05;0.90;-0.23;-3.50;-10.22;-3.57
6783;-2.13;-10.16;0.83;-0.05;0.91;-0.24;-9.03;-3.78;-2.45
6792;-2.00;-9.99;0.59;-0.05;0.91;-0.24;-13.16;2.24;-3.92
6801;-1.98;-9.93;0.36;-0.05;0.91;-0.24;-13.30;2.31;-4.41
6809;-1.86;-9.99;0.37;-0.05;0.90;-0.25;-8.12;-1.54;-3.08
6818;-1.74;-9.93;0.24;-0.05;0.90;-0.25;-1.40;-8.75;-2.45
6827;-1.86;-9.98;0.33;-0.05;0.90;-0.25;6.65;-16.17;-0.14
6836;-1.64;-9.91;0.61;-0.04;0.91;-0.25;12.67;-19.32;1.12
6844;-1.36;-9.71;0.70;-0.04;0.91;-0.25;14.77;-18.20;0.56
6853;-1.27;-9.78;0.61;-0.04;0.91;-0.24;10.85;-16.59;-2.87
6862;-1.32;-9.92;0.62;-0.05;0.91;-0.24;4.27;-14.91;-4.69
6871;-1.56;-9.91;0.73;-0.05;0.91;-0.24;-0.77;-14.56;-4.97
6880;-1.58;-10.22;0.88;-0.05;0.91;-0.25;-4.55;-13.86;-3.57
6888;-1.52;-10.25;0.98;-0.05;0.91;-0.25;-7.14;-10.01;-1.40
6897;-1.40;-10.25;1.17;-0.05;0.91;-0.25;-9.80;-7.35;-1.26
6906;-1.15;-10.21;1.31;-0.07;0.91;-0.25;-8.89;-6.65;-1.05
6915;-1.12;-10.24;1.34;-0.07;0.91;-0.25;-6.72;-6.93;-2.87
6924;-1.13;-10.27;1.38;-0.07;0.91;-0.25;-1.61;-8.61;-3.57
6933;-1.11;-10.29;1.62;-0.07;0.92;-0.25;4.83;-8.89;-3.71
6941;-1.31;-10.23;1.53;-0.07;0.92;-0.25;7.84;-7.28;-3.57
6950;-1.41;-10.07;1.49;-0.07;0.92;-0.25;9.66;-4.13;-2.87
6959;-1.31;-9.85;1.22;-0.06;0.91;-0.24;9.66;-1.05;-2.24
6968;-1.43;-9.79;1.07;-0.06;0.91;-0.24;7.49;1.61;-2.59
6977;-1.28;-9.83;0.93;-0.06;0.91;-0.24;3.71;4.55;-2.45
6986;-1.23;-9.81;0.72;-0.06;0.91;-0.24;-0.70;7.00;-2.17
6994;-1.08;-9.71;0.47;-0.06;0.91;-0.24;-2.94;6.16;-1.54
7003;-1.04;-9.50;0.30;-0.06;0.91;-0.24;-4.69;1.40;-2.59
7012;-1.01;-9.66;0.23;-0.06;0.91;-0.25;-6.44;-4.97;-4.27
7021;-1.24;-9.75;0.75;-0.06;0.91;-0.25;-5.25;-10.08;-5.60
7030;-1.51;-9.72;0.90;-0.06;0.91;-0.25;-3.64;-11.62;-5.95
7039;-1.59;-9.68;1.10;-0.05;0.92;-0.23;-1.75;-10.78;-6.86
7048;-3.60;-9.69;1.26;-0.05;0.92;-0.23;-1.40;-7.28;-7.63
7056;-1.93;-9.72;1.25;-0.05;0.92;-0.23;0.28;-2.52;-7.56
7065;-1.88;-9.53;1.18;-0.06;0.90;-0.24;0.84;2.80;-8.12
7074;-2.04;-9.40;0.90;-0.06;0.90;-0.24;3.22;2.73;-9.52
7083;-1.83;-9.80;0.78;-0.06;0.90;-0.24;10.50;1.96;-7.35
7092;-1.87;-9.91;0.62;-0.07;0.91;-0.24;13.37;1.19;-7.84
7101;-1.62;-9.86;0.29;-0.07;0.91;-0.24;13.51;-2.45;-8.96
7109;-1.60;-10.02;0.26;-0.07;0.91;-0.24;11.62;-5.11;-10.22
7118;-1.77;-10.25;0.32;-0.06;0.91;-0.24;6.16;-7.28;-10.29
7127;-1.91;-10.32;0.44;-0.06;0.91;-0.24;-1.47;-9.59;-9.87
7136;-2.18;-10.29;0.40;-0.07;0.90;-0.24;-6.58;-11.55;-9.59
7145;-2.19;-10.16;0.81;-0.07;0.90;-0.24;-8.40;-12.81;-9.45
7153;-2.35;-9.97;1.15;-0.07;0.90;-0.24;-5.81;-7.91;-7.07
7162;-2.53;-9.57;1.17;-0.07;0.92;-0.24;-3.22;-1.75;-7.63
7171;-2.30;-9.61;0.88;-0.07;0.92;-0.24;1.05;5.46;-7.84
7180;-2.07;-9.68;0.63;-0.07;0.92;-0.24;7.00;7.91;-8.54
7189;-1.94;-9.71;0.11;-0.08;0.91;-0.23;12.32;4.55;-9.45
7198;-1.69;-9.93;-0.11;-0.08;0.91;-0.23;13.86;-1.54;-10.50
7206;-1.62;-9.93;-0.05;-0.08;0.91;-0.23;10.71;-7.21;-10.50
7215;-1.73;-10.16;0.24;-0.08;0.92;-0.23;5.04;-10.50;-10.36
7224;-1.74;-10.32;0.62;-0.08;0.92;-0.23;-0.77;-10.15;-7.77
7233;-1.74;-10.36;0.76;-0.08;0.92;-0.23;-7.00;-6.58;-5.39
7242;-1.77;-10.14;0.90;-0.08;0.92;-0.23;-9.52;-3.36;-4.13
7250;-1.67;-10.37;1.02;-0.08;0.92;-0.23;-9.80;0.21;-1.68
7259;-1.54;-10.31;0.95;-0.08;0.92;-0.23;-6.93;3.78;0.21
7268;-1.39;-10.29;0.91;-0.08;0.91;-0.24;0.63;4.13;1.12
7277;-1.23;-10.18;0.88;-0.08;0.91;-0.24;10.64;2.17;0.77
7286;-1.08;-10.39;0.66;-0.08;0.91;-0.24;17.29;0.00;1.26
7295;-1.11;-10.55;0.57;-0.08;0.91;-0.24;18.55;-2.38;1.96
7303;-0.60;-10.66;0.42;-0.08;0.91;-0.24;14.14;-3.78;4.97
7312;-0.63;-10.74;0.58;-0.08;0.91;-0.24;8.82;-4.69;9.10
7321;-0.45;-10.66;0.62;-0.08;0.91;-0.24;3.99;-4.48;12.67
7330;-0.33;-10.55;0.65;-0.08;0.91;-0.24;1.19;-4.20;15.47
7339;-0.15;-10.49;0.73;-0.08;0.91;-0.24;-1.82;-3.85;16.73
7347;-0.16;-10.43;0.79;-0.07;0.92;-0.24;-2.87;-4.13;16.66
7356;-0.15;-10.41;0.97;-0.07;0.92;-0.24;-2.10;-5.39;16.17
7365;0.00;-10.34;1.09;-0.07;0.92;-0.24;-1.89;-5.60;15.19
7374;-0.08;-10.42;1.39;-0.07;0.91;-0.25;-2.17;-5.18;13.93
7383;-0.01;-10.17;1.45;-0.07;0.91;-0.25;-2.87;-4.27;13.79
7391;0.00;-9.95;1.42;-0.07;0.91;-0.25;-3.57;-4.90;13.02
7400;0.04;-9.81;1.38;-0.07;0.90;-0.23;-4.69;-6.65;11.97
7409;0.31;-9.58;1.35;-0.07;0.90;-0.23;-5.46;-7.42;11.41
7418;0.04;-9.70;1.55;-0.07;0.91;-0.23;-5.95;-6.23;9.94
7427;-0.04;-9.55;1.76;-0.07;0.91;-0.23;-6.93;-3.08;8.54
7436;-0.25;-9.64;1.97;-0.07;0.91;-0.23;-7.70;1.26;8.26
7444;-0.29;-9.86;1.90;-0.07;0.91;-0.25;-8.26;7.35;8.54
7453;-0.36;-9.93;1.71;-0.07;0.91;-0.25;-8.61;10.78;8.89
7462;-0.17;-10.21;1.67;-0.07;0.91;-0.25;-8.89;12.18;9.73
7471;-0.18;-10.26;1.56;-0.06;0.90;-0.24;-8.61;12.11;10.08
7480;0.08;-10.52;1.62;-0.06;0.90;-0.24;-7.42;11.34;10.50
7488;0.12;-10.72;1.50;-0.06;0.90;-0.24;-6.58;9.87;11.20
7497;0.43;-10.82;1.34;-0.06;0.91;-0.24;-7.49;8.89;11.20
7506;0.35;-10.60;1.23;-0.06;0.91;-0.24;-9.87;9.03;11.48
7515;0.20;-10.34;1.10;-0.06;0.91;-0.24;-12.04;5.32;9.87
7524;-0.29;-10.16;1.30;-0.06;0.91;-0.24;-9.45;2.38;10.57
7532;-0.67;-10.06;1.64;-0.06;0.91;-0.24;-7.35;5.60;10.15
7541;-0.62;-9.99;1.66;-0.06;0.91;-0.24;-10.64;13.02;9.66
7550;-0.47;-9.72;1.44;-0.06;0.91;-0.24;-14.49;17.57;8.54
7559;-0.37;-9.53;1.41;-0.06;0.91;-0.24;-18.06;17.71;6.79
7568;-0.32;-9.64;1.37;-0.06;0.91;-0.24;-18.76;16.24;6.09
7576;-0.20;-9.54;1.64;-0.05;0.91;-0.26;-16.24;13.79;4.55
7585;-0.29;-9.57;1.71;-0.05;0.91;-0.26;-11.06;10.85;4.69
7594;-0.52;-9.82;1.84;-0.05;0.91;-0.26;-3.85;12.32;7.56
7603;-0.58;-9.68;1.74;-0.05;0.90;-0.25;-2.87;18.20;8.12
7612;-0.73;-9.60;1.47;-0.05;0.90;-0.25;-8.33;22.33;5.74
7620;-0.78;-9.81;1.30;-0.05;0.90;-0.25;-13.86;24.64;3.92
7629;-0.75;-9.81;1.21;-0.04;0.90;-0.24;-16.80;26.11;3.64
7638;-0.92;-9.57;1.28;-0.04;0.90;-0.24;-15.19;23.24;3.15
7647;-0.86;-9.47;1.49;-0.04;0.90;-0.24;-13.02;19.81;-0.35
7656;-0.95;-9.25;1.67;-0.04;0.90;-0.25;-12.67;22.75;-3.08
7664;-0.91;-9.35;1.59;-0.04;0.90;-0.25;-10.08;23.10;-5.04
7673;-0.84;-9.83;1.59;-0.04;0.90;-0.25;-3.92;19.88;-7.35
7682;-1.22;-9.88;1.29;-0.04;0.90;-0.26;4.48;16.66;-4.69
7691;-1.21;-9.78;0.99;-0.04;0.90;-0.26;14.70;9.87;-5.04
7700;-1.43;-9.82;0.42;-0.04;0.90;-0.24;17.57;-0.28;-8.12
7709;-1.60;-9.97;0.27;-0.04;0.89;-0.24;15.05;-7.56;-12.46
7717;-1.49;-9.75;0.18;-0.04;0.89;-0.24;5.32;-10.85;-14.77
7726;-1.57;-9.66;0.34;-0.05;0.89;-0.24;-6.58;-15.96;-18.06
7735;-1.62;-9.80;0.56;-0.05;0.89;-0.24;-14.63;-23.87;-22.05
7744;-1.70;-10.01;1.15;-0.05;0.89;-0.24;-16.80;-29.26;-23.45
7753;-1.56;-9.91;1.86;-0.06;0.90;-0.25;-17.99;-28.14;-22.75
7762;-1.21;-9.95;2.67;-0.06;0.90;-0.25;-25.48;-15.33;-23.31
7770;-1.36;-9.74;2.79;-0.06;0.90;-0.25;-38.78;3.50;-26.25
7779;-1.18;-9.66;2.93;-0.05;0.91;-0.25;-47.04;17.99;-28.91
7788;-0.76;-9.85;2.83;-0.05;0.91;-0.25;-47.11;20.51;-31.78
7797;0.09;-9.71;2.96;-0.05;0.91;-0.25;-40.88;14.56;-35.84
7806;1.26;-9.68;3.29;-0.07;0.90;-0.25;-38.01;-0.14;-41.02
7815;1.84;-9.16;4.41;-0.07;0.90;-0.25;-43.89;-15.89;-47.25
7824;2.21;-8.71;5.27;-0.07;0.90;-0.25;-49.91;-33.46;-49.70
7832;1.67;-6.82;6.10;-0.08;0.89;-0.26;-59.85;-52.15;-66.85
7841;0.45;-4.99;6.96;-0.08;0.89;-0.26;-66.36;-59.78;-86.17
7850;-0.70;-6.02;4.70;-0.08;0.89;-0.26;-70.56;-83.93;-119.21
7859;-7.09;-2.35;6.12;-0.12;0.89;-0.28;-68.11;-44.24;-139.93
7868;-10.98;-1.84;8.97;-0.12;0.89;-0.28;-58.52;-32.20;-168.35
7877;-14.72;-2.61;11.64;-0.12;0.89;-0.28;-61.95;8.40;-181.30
7885;-14.74;-4.83;11.85;-0.14;0.87;-0.29;-49.84;57.26;-178.50
7894;-14.88;-8.83;9.45;-0.14;0.87;-0.29;-6.72;134.40;-165.76
7903;-15.90;-11.46;4.15;-0.14;0.87;-0.29;57.19;209.79;-128.10
7912;-18.64;-19.42;-4.35;-0.14;0.86;-0.29;136.50;263.97;-56.21
7921;-17.86;-29.12;-19.51;-0.14;0.86;-0.29;233.52;264.81;38.29
7929;-10.87;-31.21;-31.75;-0.14;0.86;-0.29;319.34;188.79;197.05
7938;-1.08;-20.00;-37.48;-0.09;0.88;-0.27;443.03;62.51;336.70
7947;3.98;-5.46;-35.69;-0.09;0.88;-0.27;465.99;-89.60;371.63
7956;1.85;4.50;-25.21;-0.09;0.88;-0.27;250.53;-230.86;163.17
7965;-0.18;5.05;-10.99;-0.02;0.90;-0.21;-84.91;-253.33;-35.00
7974;-5.25;1.39;4.39;-0.02;0.90;-0.21;-337.82;-175.21;-146.86
7982;-9.21;-3.04;13.63;-0.09;0.90;-0.23;-366.52;-92.89;-152.11
7991;-10.85;-7.70;17.79;-0.09;0.90;-0.23;-247.87;-33.32;-93.17
8000;-11.16;-11.69;17.11;-0.09;0.90;-0.23;-30.24;-3.29;-16.66
8009;-10.41;-13.62;12.03;-0.09;0.88;-0.26;98.56;10.29;44.66
8018;-7.54;-10.99;8.03;-0.09;0.88;-0.26;142.87;27.09;88.06
8027;-4.39;-8.34;4.51;-0.09;0.88;-0.26;131.60;39.55;102.62
8035;-1.69;-7.09;1.00;-0.06;0.89;-0.23;116.34;45.92;89.60
8044;-0.95;-6.94;-1.35;-0.06;0.89;-0.23;84.42;39.48;61.60
8053;-0.34;-7.77;-2.30;-0.06;0.89;-0.23;45.01;27.58;36.33
8062;-0.20;-8.87;-2.10;-0.05;0.89;-0.21;1.68;15.12;8.47
8071;-0.82;-9.51;-1.27;-0.05;0.89;-0.21;-26.46;8.47;-4.20
8079;-1.31;-10.42;-0.35;-0.05;0.89;-0.21;-31.08;0.56;-5.60
8088;-2.12;-10.43;0.65;-0.05;0.90;-0.22;-23.17;-4.90;-3.92
8097;-2.68;-10.18;1.78;-0.05;0.90;-0.22;-11.62;-8.19;3.50
8106;-2.51;-9.97;2.68;-0.05;0.90;-0.22;2.59;-8.68;12.18
8115;-2.07;-10.22;2.67;-0.06;0.90;-0.22;14.98;-3.08;15.96
8124;-2.00;-10.82;1.73;-0.06;0.90;-0.22;17.01;6.16;17.22
8132;-1.74;-11.21;0.72;-0.06;0.90;-0.22;14.07;10.22;18.34
8141;-1.52;-11.42;0.13;-0.05;0.90;-0.22;10.36;8.40;16.24
8150;-1.51;-10.92;-0.53;-0.05;0.90;-0.22;3.15;5.18;16.73
8159;-1.67;-10.53;-0.93;-0.05;0.90;-0.22;-6.02;1.40;15.05
8167;-1.99;-9.91;-0.88;-0.05;0.90;-0.21;-12.39;-3.50;12.46
8176;-2.11;-9.37;-0.32;-0.05;0.90;-0.21;-13.86;-9.17;10.57
8185;-2.13;-7.36;0.07;-0.05;0.90;-0.21;-10.15;-11.34;7.98
8194;-2.33;-9.30;0.43;-0.05;0.89;-0.21;-5.39;-10.43;6.86
8203;-2.35;-9.56;0.68;-0.05;0.89;-0.21;-3.50;-8.26;6.58
8212;-2.49;-9.90;0.57;-0.05;0.89;-0.21;-4.41;-4.83;6.02
8221;-2.51;-9.68;0.47;-0.04;0.90;-0.22;-7.28;-3.50;5.88
8229;-2.53;-9.61;0.90;-0.04;0.90;-0.22;-5.18;-2.66;5.95
8238;-2.62;-9.58;1.20;-0.04;0.90;-0.22;-1.47;-0.56;6.44
8247;-2.40;-9.31;1.19;-0.04;0.89;-0.21;-1.47;3.36;6.58
8256;-2.51;-9.33;0.86;-0.04;0.89;-0.21;-0.63;5.67;6.16
8265;-2.23;-9.56;0.27;-0.04;0.90;-0.22;1.75;6.58;6.09
8273;-2.00;-9.62;-0.33;-0.05;0.90;-0.22;3.36;5.88;7.42
8282;-2.01;-9.48;-0.37;-0.05;0.90;-0.22;0.42;3.57;7.21
8291;-1.85;-9.29;-0.11;-0.04;0.89;-0.23;-1.96;0.00;5.46
8300;-1.93;-9.37;1.83;-0.04;0.89;-0.23;-5.46;-0.35;3.22
8309;-2.05;-9.30;0.34;-0.04;0.89;-0.23;-8.89;-0.14;2.17
8317;-1.96;-9.30;0.62;-0.04;0.90;-0.23;-8.40;-0.42;1.82
8326;-2.11;-9.20;1.00;-0.04;0.90;-0.23;-5.25;-1.40;1.47
8335;-2.16;-9.15;1.16;-0.04;0.90;-0.23;-3.15;-1.47;0.35
8344;-1.89;-9.06;0.95;-0.04;0.89;-0.22;-1.61;-0.21;-0.84
8353;-1.92;-9.34;1.26;-0.04;0.89;-0.22;-2.10;2.52;-1.89
8361;-1.89;-9.50;0.93;-0.04;0.89;-0.22;-3.08;4.69;-2.17
8370;-1.84;-9.85;0.83;-0.05;0.90;-0.21;-2.31;5.53;-1.75
8379;-1.93;-9.99;0.61;-0.05;0.90;-0.21;-0.42;4.76;-1.12
8388;-1.92;-10.05;0.62;-0.05;0.90;-0.21;-0.07;3.99;0.98
8397;-1.75;-9.97;0.50;-0.04;0.89;-0.23;-0.21;3.01;3.15
8405;-1.83;-9.68;0.48;-0.04;0.89;-0.23;0.70;0.91;3.50
8414;-1.96;-9.65;0.76;-0.04;0.89;-0.23;1.19;-1.54;2.87
8423;-1.99;-9.44;0.70;-0.04;0.90;-0.21;0.70;-1.54;1.33
8432;-1.91;-9.27;0.90;-0.04;0.90;-0.21;-0.56;0.07;0.21
8441;-2.14;-9.55;0.83;-0.04;0.90;-0.21;-0.84;3.36;-1.19
8449;-2.05;-9.86;0.68;-0.04;0.90;-0.22;-1.19;5.81;-2.52
8458;-2.08;-10.16;0.42;-0.04;0.90;-0.22;-1.40;9.52;-1.89
8467;-1.89;-10.04;0.04;-0.04;0.90;-0.22;-3.99;11.48;-2.31
8476;-1.89;-10.05;0.05;-0.04;0.91;-0.23;-4.97;10.50;-2.24
8485;-2.03;-10.01;0.06;-0.04;0.91;-0.23;-1.75;6.58;-0.07
8494;-2.13;-9.93;0.11;-0.04;0.91;-0.23;1.96;2.87;1.61
8502;-2.10;-9.96;0.19;-0.04;0.91;-0.22;3.78;-0.14;3.36
8511;-2.09;-9.81;0.19;-0.04;0.91;-0.22;3.99;-2.31;3.57
8520;-1.90;-9.81;0.21;-0.04;0.91;-0.22;3.01;-3.15;2.94
8529;-1.94;-9.86;0.30;-0.03;0.90;-0.22;2.45;-4.62;0.91
8538;-1.90;-9.83;0.41;-0.03;0.90;-0.22;0.56;-4.76;-0.49
8546;-1.95;-9.81;0.63;-0.03;0.90;-0.22;-2.38;-3.99;-2.31
8555;-2.08;-9.91;0.86;-0.04;0.90;-0.22;-4.06;-0.77;-1.54
8564;-2.28;-9.96;1.11;-0.04;0.90;-0.22;-4.62;2.66;-2.80
8573;-2.25;-9.89;1.03;-0.05;0.90;-0.22;-4.27;3.71;-1.12
8582;-2.08;-9.96;1.13;-0.05;0.90;-0.22;0.63;2.87;2.73
8591;-2.02;-9.85;0.85;-0.05;0.90;-0.22;7.07;1.33;5.74
8599;-1.75;-9.80;0.60;-0.04;0.90;-0.22;8.68;1.12;5.25
8608;-1.74;-9.78;0.25;-0.04;0.90;-0.22;3.36;1.05;3.50
8617;-1.72;-9.78;0.06;-0.04;0.90;-0.22;-1.68;-0.49;0.56
8626;-1.88;-9.72;0.23;-0.04;0.90;-0.23;-4.13;-2.80;-1.89
8635;-2.04;-9.92;0.44;-0.04;0.90;-0.23;-4.69;-3.78;-2.94
8643;-2.14;-10.06;0.70;-0.04;0.90;-0.23;-3.43;-2.94;-2.94
8652;-2.07;-10.04;0.79;-0.04;0.90;-0.22;-2.87;0.28;-1.54
8661;-2.07;-10.06;0.88;-0.04;0.90;-0.22;-2.10;2.31;-0.28
8670;-2.15;-9.96;0.83;-0.04;0.90;-0.22;0.70;4.06;0.91
8679;-2.07;-10.11;0.67;-0.05;0.89;-0.22;2.31;4.06;1.96
8688;-2.30;-10.02;0.52;-0.05;0.89;-0.22;3.50;3.43;3.22
8697;-2.12;-10.03;0.15;-0.05;0.89;-0.22;4.13;2.87;4.62
8705;-1.98;-10.07;-0.27;-0.03;0.89;-0.22;3.01;0.42;5.04
8714;-1.91;-10.12;-0.60;-0.03;0.89;-0.22;1.75;-3.15;5.60
8723;-1.97;-10.21;-0.79;-0.03;0.89;-0.22;-0.07;-7.07;5.88
8732;-1.90;-10.14;-0.80;-0.03;0.89;-0.22;-0.84;-11.48;6.09
8741;-1.82;-10.05;-0.56;-0.03;0.89;-0.22;-3.15;-14.42;5.81
8749;-1.77;-10.09;-0.32;-0.03;0.89;-0.22;-7.42;-16.87;4.97
8758;-2.24;-10.06;0.20;-0.04;0.89;-0.23;-10.22;-18.48;5.60
8767;-2.42;-10.19;0.60;-0.04;0.89;-0.23;-12.25;-17.92;6.23
8776;-2.46;-10.33;0.85;-0.04;0.89;-0.23;-12.18;-18.06;6.86
8785;-2.56;-10.51;0.70;-0.04;0.90;-0.21;-10.01;-16.94;10.57
8794;-2.69;-10.62;0.39;-0.04;0.90;-0.21;-7.00;-17.50;14.28
8803;-2.70;-10.13;0.38;-0.04;0.90;-0.21;-3.50;-19.25;18.06
8811;-2.63;-9.82;0.36;-0.05;0.90;-0.23;-1.82;-21.14;19.53
8820;-2.65;-9.60;0.52;-0.05;0.90;-0.23;-2.45;-20.02;19.32
8829;-2.75;-9.07;0.66;-0.05;0.90;-0.23;-3.92;-20.58;14.98
8838;-2.45;-8.89;0.76;-0.06;0.90;-0.23;-6.65;-20.23;10.99
8847;-2.42;-8.88;0.93;-0.06;0.90;-0.23;-10.15;-15.12;6.44
8855;-2.21;-9.02;0.93;-0.04;0.90;-0.23;-15.40;-7.98;1.96
8864;-2.33;-9.21;0.81;-0.04;0.90;-0.23;-20.44;-2.59;-2.87
8873;-2.57;-9.61;0.57;-0.04;0.90;-0.23;-23.17;1.82;-5.39
8882;-2.95;-9.86;0.26;-0.05;0.90;-0.23;-24.85;1.96;-6.09
8891;-3.14;-10.13;0.15;-0.05;0.90;-0.23;-22.89;-2.80;-2.03
8900;-3.22;-10.06;-0.02;-0.05;0.90;-0.23;-14.21;-9.66;8.19
8908;-3.03;-9.88;0.01;-0.05;0.89;-0.23;-4.90;-16.45;15.19
8917;-2.91;-9.54;0.04;-0.05;0.89;-0.23;-2.38;-18.27;17.50
8926;-2.56;-9.15;-0.04;-0.05;0.89;-0.23;-3.36;-18.41;16.87
8935;-2.23;-9.04;-0.11;-0.05;0.89;-0.24;-6.02;-16.31;15.33
8944;-2.09;-9.01;-0.18;-0.05;0.89;-0.24;-11.13;-13.37;11.76
8953;-1.98;-9.12;-0.22;-0.05;0.89;-0.24;-16.73;-8.82;8.19
8962;-2.24;-9.17;-0.11;-0.05;0.88;-0.24;-21.28;-6.72;4.62
8970;-2.32;-9.45;-0.15;-0.05;0.88;-0.24;-23.38;-6.79;3.43
8979;-2.61;-9.71;0.16;-0.05;0.88;-0.24;-21.84;-7.21;3.99
8988;-2.64;-9.71;0.28;-0.04;0.90;-0.25;-17.64;-7.49;5.74
8997;-2.99;-9.76;0.29;-0.04;0.90;-0.25;-10.01;-12.81;8.19
9006;-3.03;-9.71;0.34;-0.04;0.90;-0.25;1.19;-18.48;14.21
9015;-2.61;-9.45;0.19;-0.05;0.89;-0.25;10.22;-24.15;21.42
9023;-2.30;-9.10;0.04;-0.05;0.89;-0.25;15.12;-27.37;23.17
9032;-0.11;-8.83;-0.08;-0.05;0.89;-0.25;13.44;-29.33;19.88
9041;-1.89;-8.79;0.02;-0.05;0.90;-0.25;7.00;-28.00;13.16
9050;-1.54;-8.91;1.81;-0.05;0.90;-0.25;-4.06;-24.15;5.18
9059;-1.72;-9.29;0.37;-0.05;0.90;-0.25;-12.39;-19.53;-4.34
9068;-2.01;-9.58;0.65;-0.05;0.89;-0.23;-17.92;-13.09;-9.87
9077;-1.97;-9.86;1.00;-0.05;0.89;-0.23;-17.36;-3.92;-10.50
9085;-2.59;-10.12;1.11;-0.05;0.89;-0.23;-12.60;5.11;-8.89
9094;-2.89;-10.19;0.95;-0.05;0.89;-0.23;-3.43;5.88;-5.53
9103;-3.09;-10.31;0.80;-0.05;0.89;-0.23;9.10;-1.54;1.47
9112;-2.81;-10.13;0.27;-0.05;0.89;-0.23;20.86;-12.04;11.90
9121;-2.22;-9.71;-0.01;-0.05;0.89;-0.23;29.68;-25.90;16.17
9129;-1.74;-9.21;-0.14;-0.05;0.89;-0.23;28.35;-35.35;13.51
9138;-1.55;-9.01;-0.06;-0.05;0.90;-0.24;18.55;-40.53;5.88
9147;-1.59;-9.02;0.34;-0.05;0.90;-0.24;4.13;-39.76;-3.15
9156;-1.84;-9.13;0.65;-0.05;0.90;-0.24;-10.43;-31.78;-9.59
9165;-1.83;-9.43;1.05;-0.06;0.90;-0.23;-24.57;-20.02;-14.63
9174;-1.95;-9.53;1.08;-0.06;0.90;-0.23;-31.64;-7.07;-16.24
9183;-2.16;-9.98;1.17;-0.06;0.90;-0.23;-32.34;1.54;-20.79
9191;-2.32;-10.32;1.39;-0.06;0.90;-0.25;-25.34;2.03;-22.61
9200;-2.61;-10.55;1.20;-0.06;0.90;-0.25;-12.04;-3.22;-12.88
9209;-2.43;-10.53;0.98;-0.06;0.90;-0.25;17.85;-13.72;-3.22
9218;-1.99;-10.29;0.15;-0.06;0.90;-0.24;12.04;-23.52;-0.07
9227;-1.93;-9.95;1.11;-0.06;0.90;-0.24;17.99;-28.35;-0.14
9236;-1.81;-9.94;1.18;-0.06;0.90;-0.24;18.62;-30.24;-2.94
9244;-1.77;-9.66;1.13;-0.06;0.90;-0.25;13.51;-27.37;-5.18
9253;-1.77;-9.73;1.43;-0.06;0.90;-0.25;6.09;-21.14;-6.09
9262;-1.49;-9.68;1.44;-0.06;0.90;-0.25;-2.17;-8.75;-7.49
9271;-1.42;-9.60;1.29;-0.07;0.90;-0.25;-13.65;3.43;-10.15
9280;-1.09;-9.76;1.20;-0.07;0.90;-0.25;-24.64;15.40;-12.81
9289;-1.36;-9.83;1.26;-0.07;0.90;-0.25;-32.20;25.62;-14.21
9297;-1.49;-9.78;0.95;-0.06;0.90;-0.25;-32.55;23.73;-10.92
9306;-1.46;-10.55;1.03;-0.06;0.90;-0.25;-26.39;17.01;-11.13
9315;-1.29;-10.20;1.17;-0.06;0.90;-0.25;-12.46;5.95;-13.72
9324;-1.26;-10.22;1.53;-0.06;0.89;-0.24;-2.17;-1.05;-14.91
9333;-1.29;-10.10;1.86;-0.06;0.89;-0.24;0.98;-1.26;-15.19
9342;-1.44;-10.39;1.88;-0.06;0.89;-0.24;-0.14;3.92;-14.14
9350;-1.34;-10.47;1.75;-0.07;0.91;-0.26;-1.96;8.96;-14.49
9359;-1.12;-10.41;1.55;-0.07;0.91;-0.26;-5.04;14.91;-13.16
9368;-1.01;-10.52;1.32;-0.07;0.91;-0.24;-5.25;18.41;-12.04
9377;-1.05;-10.48;1.18;-0.08;0.91;-0.24;-3.71;17.57;-11.20
9386;-1.06;-10.44;1.04;-0.08;0.91;-0.24;-3.22;13.16;-9.38
9395;-1.13;-10.39;1.17;-0.07;0.90;-0.25;-2.59;9.38;-6.51
9404;-1.36;-10.24;1.26;-0.07;0.90;-0.25;-1.75;7.21;-5.25
9412;-1.25;-10.09;1.26;-0.07;0.90;-0.25;1.68;5.53;-5.11
9421;-1.30;-10.08;1.39;-0.08;0.89;-0.25;7.42;4.06;-3.71
9430;-1.26;-10.08;1.34;-0.08;0.89;-0.25;12.60;4.62;-3.15
9439;-0.90;-10.01;1.01;-0.08;0.89;-0.25;17.43;5.67;-3.22
9448;-0.93;-10.16;0.88;-0.07;0.90;-0.26;17.92;5.81;-3.08
9456;-1.05;-10.14;0.55;-0.07;0.90;-0.26;13.93;5.81;-3.99
9465;-1.08;-10.14;0.58;-0.07;0.90;-0.26;10.64;2.73;-5.53
9474;-1.32;-10.39;0.50;-0.07;0.90;-0.26;7.28;-0.77;-4.97
9483;-1.61;-10.52;0.64;-0.07;0.90;-0.26;5.11;-2.94;-3.15
9492;-1.66;-10.44;0.75;-0.07;0.90;-0.26;1.96;-4.27;-1.05
9500;-1.82;-10.40;0.87;-0.06;0.91;-0.25;-4.55;-3.85;0.91
9509;-1.95;-9.99;1.06;-0.06;0.91;-0.25;-8.75;-2.59;3.22
9518;-1.96;-9.73;1.17;-0.06;0.91;-0.25;-8.89;-1.82;4.69
9527;-1.84;-9.48;1.08;-0.07;0.90;-0.25;-2.73;-1.61;3.29
9536;-1.81;-9.15;1.11;-0.07;0.90;-0.25;7.14;-0.56;0.28
9545;-1.83;-9.27;1.03;-0.07;0.90;-0.25;17.08;-0.91;-3.43
9553;-1.85;-9.32;0.82;-0.06;0.90;-0.26;26.53;0.35;-5.81
9562;-2.05;-9.37;0.60;-0.06;0.90;-0.26;27.37;0.14;-9.10
9571;-2.10;-9.58;0.52;-0.06;0.90;-0.26;21.35;-0.84;-11.13
9580;-2.34;-9.79;0.34;-0.07;0.91;-0.24;12.95;-1.89;-10.57
9589;-2.43;-9.73;0.45;-0.07;0.91;-0.24;-1.47;-0.42;-9.10
9597;-2.43;-9.57;0.56;-0.07;0.91;-0.24;-12.11;1.40;-7.28
9606;-2.35;-9.48;0.83;-0.07;0.90;-0.25;-18.06;3.57;-6.02
9615;-2.51;-9.84;1.11;-0.07;0.90;-0.25;-18.69;2.80;-4.48
9624;-2.11;-9.77;1.16;-0.07;0.90;-0.25;-12.95;1.89;-3.01
9633;-1.83;-9.76;1.11;-0.08;0.89;-0.25;-4.76;-0.70;-3.50
9642;-1.94;-9.84;1.35;-0.08;0.89;-0.25;4.13;-3.08;-5.25
9650;-1.72;-10.04;1.54;-0.08;0.89;-0.25;12.32;-4.55;-5.25
9659;-1.80;-10.08;1.28;-0.07;0.91;-0.25;15.54;-4.13;-5.11
9668;-1.53;-9.99;1.13;-0.07;0.91;-0.25;12.32;-4.76;-4.90
9677;-1.28;-9.97;1.21;-0.08;0.90;-0.24;9.73;-5.53;-3.99
9686;-1.51;-10.11;1.43;-0.08;0.90;-0.24;9.24;-5.95;-1.82
9695;-1.34;-10.31;1.42;-0.08;0.90;-0.24;10.22;-5.32;0.14
9703;-1.18;-10.51;1.29;-0.08;0.91;-0.24;10.57;-6.30;0.42
9712;-0.83;-10.65;1.28;-0.08;0.91;-0.24;10.85;-6.58;4.34
9721;-0.93;-10.76;1.11;-0.08;0.91;-0.24;10.78;-7.84;7.07
9730;-0.74;-10.70;1.26;-0.08;0.90;-0.24;7.91;-8.05;9.80
9739;-0.62;-10.63;1.28;-0.08;0.90;-0.24;3.36;-7.91;11.69
9747;-0.47;-10.60;1.34;-0.08;0.90;-0.24;2.10;-8.26;12.04
9756;-0.65;-10.57;1.43;-0.09;0.90;-0.25;2.73;-8.05;14.00
9765;-0.35;-10.21;1.41;-0.09;0.90;-0.25;3.50;-6.65;15.12
9774;-0.22;-10.01;1.34;-0.09;0.90;-0.25;1.75;-4.76;14.42
9783;-0.18;-9.81;1.30;-0.08;0.91;-0.24;-2.38;-4.69;11.83
9792;-0.22;-9.76;1.44;-0.08;0.91;-0.24;-3.29;-5.04;9.59
9800;-0.37;-9.73;1.41;-0.08;0.91;-0.24;-3.22;-7.07;8.05
9809;-0.55;-9.76;1.69;-0.08;0.90;-0.24;-2.17;-9.38;6.79
9818;-0.72;-9.86;1.77;-0.08;0.90;-0.24;-0.98;-8.68;7.14
9827;-0.82;-9.83;1.99;-0.08;0.90;-0.24;-2.38;-4.06;7.49
9836;-0.93;-9.91;1.95;-0.08;0.91;-0.24;-5.74;1.26;7.07
9844;-0.93;-10.11;1.75;-0.08;0.91;-0.24;-4.34;5.25;6.93
9853;-1.13;-10.14;1.58;-0.08;0.91;-0.24;-2.38;7.77;6.30
9862;-1.21;-10.24;1.44;-0.08;0.90;-0.24;-1.75;7.70;4.13
9871;-1.40;-10.46;1.31;-0.08;0.90;-0.24;-1.47;6.23;3.36
9880;-1.42;-10.47;1.18;-0.08;0.90;-0.24;-1.61;4.13;3.01
9889;-1.21;-10.34;0.90;-0.06;0.91;-0.24;-3.64;2.38;2.45
9898;-0.97;-10.21;1.03;-0.06;0.91;-0.24;-8.33;1.96;0.56
9906;-0.71;-10.21;0.97;-0.06;0.91;-0.24;-12.11;0.42;-2.10
9915;-0.73;-10.22;1.26;-0.08;0.90;-0.24;-14.35;-0.63;-3.85
9924;-0.70;-10.39;1.39;-0.08;0.90;-0.24;-13.72;-1.19;-3.78
9933;-0.56;-10.30;1.51;-0.08;0.90;-0.24;-12.46;0.21;-2.80
9942;-0.62;-10.16;1.79;-0.07;0.91;-0.24;-12.53;3.08;-2.17
9950;-0.37;-9.87;1.72;-0.07;0.91;-0.24;-12.88;4.27;-1.82
9959;0.06;-9.72;1.59;-0.06;0.91;-0.24;-12.39;4.76;-2.59
9968;0.19;-9.60;1.48;-0.06;0.91;-0.24;-11.76;4.27;-2.80
9977;0.55;-9.56;1.36;-0.06;0.91;-0.24;-13.23;1.26;-3.92
9986;1.05;-9.75;1.39;-0.07;0.89;-0.25;-18.62;0.14;-4.76
9994;1.28;-9.95;1.60;-0.07;0.89;-0.25;-29.75;2.38;-4.27
10003;1.37;-10.25;1.99;-0.07;0.89;-0.25;-40.60;5.67;-3.85
10012;1.47;-10.46;2.32;-0.07;0.90;-0.25;-51.94;11.62;-0.84
10021;1.21;-10.62;2.99;-0.07;0.90;-0.25;-63.77;17.57;4.55
10030;1.13;-10.44;3.60;-0.07;0.90;-0.25;-63.84;24.15;11.55
10038;1.31;-10.04;3.83;-0.07;0.89;-0.26;-55.02;29.26;17.57
10047;0.60;-9.48;3.86;-0.07;0.89;-0.26;-37.59;32.97;16.94
10056;0.63;-9.33;3.62;-0.07;0.89;-0.26;-18.62;31.29;14.77
10065;1.13;-9.07;3.31;-0.05;0.90;-0.27;-2.87;30.52;10.01
10074;0.79;-8.89;2.79;-0.05;0.90;-0.27;3.50;29.19;3.50
10083;0.61;-8.78;2.23;-0.05;0.90;-0.27;3.50;24.57;-3.50
10091;0.43;-8.80;1.72;-0.06;0.89;-0.28;0.70;16.45;-10.15
10100;0.11;-8.67;1.49;-0.06;0.89;-0.28;-3.85;4.83;-18.34
10109;-0.71;-9.03;1.72;-0.06;0.89;-0.28;-7.98;-5.39;-22.26
10118;-1.77;-9.22;2.47;-0.07;0.90;-0.27;-10.71;-4.06;-19.53
10127;-2.43;-9.40;3.13;-0.07;0.90;-0.27;-14.07;8.96;-15.26
10136;-2.91;-9.31;3.18;-0.07;0.90;-0.27;-13.37;30.10;-12.60
10144;-2.68;-9.27;2.65;-0.07;0.89;-0.27;-7.56;45.50;-10.43
10153;-2.78;-9.36;1.87;-0.07;0.89;-0.27;1.61;53.27;-10.92
10162;-2.75;-9.44;1.28;-0.07;0.89;-0.27;10.71;51.73;-14.49
10171;-2.99;-9.50;1.00;-0.07;0.88;-0.28;14.21;45.78;-19.18
10180;-2.92;-9.55;0.78;-0.07;0.88;-0.28;14.63;39.34;-23.45
10188;-2.45;-9.75;0.43;-0.07;0.88;-0.28;9.24;31.15;-29.05
10197;-2.25;-9.87;0.53;-0.07;0.89;-0.27;-1.19;16.94;-34.02
10206;-1.88;-9.86;0.70;-0.07;0.89;-0.27;-6.72;3.08;-40.32
10215;-1.37;-9.73;1.08;-0.07;0.89;-0.27;-18.48;-6.79;-44.10
10224;-1.00;-9.42;1.99;-0.07;0.90;-0.28;-46.76;-15.75;-40.32
10233;-3.18;-8.41;3.82;-0.07;0.90;-0.28;-79.38;-21.91;-44.59
10241;-0.90;-7.06;4.32;-0.08;0.88;-0.27;-97.16;-55.02;-58.94
10250;-0.73;-5.70;7.56;-0.08;0.88;-0.27;-73.57;-60.69;-67.90
10259;-1.84;-2.45;8.82;-0.08;0.88;-0.27;-73.36;-88.20;-91.21
10268;-3.37;0.81;10.05;-0.11;0.88;-0.29;-60.69;-89.46;-125.37
10277;-6.07;4.08;10.23;-0.11;0.88;-0.29;-36.96;-64.89;-130.13
10286;-9.61;5.98;11.25;-0.11;0.88;-0.29;7.84;-43.89;-148.40
10294;-12.94;7.17;16.09;-0.15;0.87;-0.29;59.01;28.84;-191.45
10303;-13.91;0.37;12.73;-0.15;0.87;-0.29;140.42;92.61;-330.40
10312;-11.72;-5.14;9.82;-0.15;0.87;-0.29;169.68;268.31;-257.11
10321;-20.22;-18.64;0.39;-0.17;0.89;-0.28;154.14;463.96;-185.92
10329;-28.90;-42.40;-18.29;-0.17;0.89;-0.28;138.11;474.95;-57.54
10338;-21.05;-57.69;-47.23;-0.17;0.89;-0.28;144.97;360.71;166.32
10347;-17.88;-25.45;-60.08;-0.07;0.88;-0.25;607.11;226.31;397.32
10356;-0.42;0.37;-47.79;-0.07;0.88;-0.25;677.60;-180.46;458.08
10365;15.90;11.23;-31.36;-0.07;0.88;-0.25;442.19;-431.34;169.12
10373;5.32;14.66;-8.61;-0.04;0.91;-0.14;-10.50;-419.58;-95.27
10382;-7.77;7.01;10.22;-0.04;0.91;-0.14;-366.38;-273.35;-242.69
10391;-14.71;-6.47;22.08;-0.04;0.91;-0.14;-479.92;-128.10;-258.51
10400;-15.38;-14.02;25.24;-0.10;0.92;-0.21;-363.37;-13.58;-159.11
10409;-15.67;-16.54;20.92;-0.10;0.92;-0.21;-121.24;20.16;-24.71
10418;-14.08;-15.77;15.01;-0.10;0.92;-0.21;109.90;11.69;100.59
10426;-8.94;-10.84;9.10;-0.11;0.89;-0.22;231.00;4.76;144.34
10435;-4.08;-5.43;4.42;-0.11;0.89;-0.22;205.38;19.04;152.18
10444;-1.03;-2.38;0.27;-0.11;0.89;-0.22;131.53;39.34;95.83
10453;-0.76;-3.38;-3.05;-0.09;0.92;-0.20;40.67;43.12;45.85
10462;-1.50;-6.81;-4.44;-0.09;0.92;-0.20;-18.34;26.60;-2.94
10471;-2.69;-9.12;-3.63;-0.09;0.92;-0.20;-42.21;1.26;-19.60
10479;-4.26;-8.99;-1.35;-0.08;0.92;-0.18;-41.37;-21.91;-18.27
10488;-4.13;-8.94;1.38;-0.08;0.92;-0.18;-27.86;-31.85;-8.68
10497;-3.78;-9.04;3.60;-0.08;0.92;-0.18;-19.88;-25.90;-2.24
10506;-3.42;-9.27;4.11;-0.07;0.92;-0.21;-18.34;-17.71;-0.56
10515;-3.11;-9.60;4.10;-0.07;0.92;-0.21;-10.99;-8.26;1.96
10524;-2.81;-10.21;3.21;-0.07;0.91;-0.19;1.47;-3.29;3.71
10532;-2.86;-11.41;1.82;-0.08;0.91;-0.19;6.93;-0.28;5.81
10541;-2.81;-11.97;0.52;-0.08;0.91;-0.19;4.90;1.47;9.38
10550;-2.63;-11.81;0.11;-0.08;0.92;-0.20;-0.56;0.84;12.81
10559;-2.35;-11.25;-0.04;-0.08;0.92;-0.20;0.42;-0.91;14.28
10568;-2.09;-10.77;-0.19;-0.08;0.92;-0.20;1.26;-2.94;11.76
10576;-2.17;-10.51;-0.32;-0.07;0.92;-0.19;0.77;-4.13;10.99
10585;-2.21;-10.35;-0.04;-0.07;0.92;-0.19;-0.70;-4.90;11.97
10594;-2.09;-10.22;-0.11;-0.07;0.92;-0.19;-1.19;-3.78;10.85
10603;-2.35;-10.37;-0.14;-0.08;0.91;-0.21;-5.25;-3.01;7.00
10612;-2.52;-10.49;0.02;-0.08;0.91;-0.21;-9.10;-4.55;5.88
10621;-2.65;-10.55;0.09;-0.08;0.91;-0.21;-9.73;-6.09;6.30
10630;-2.94;-10.30;0.67;-0.07;0.91;-0.22;-8.33;-7.21;7.49
10638;-3.00;-10.11;1.09;-0.07;0.91;-0.22;-4.20;-8.12;8.61
10647;-3.08;-10.09;1.31;-0.07;0.91;-0.22;1.75;-5.88;9.31
10656;-2.95;-9.86;1.14;-0.07;0.91;-0.21;6.72;-0.77;12.46
10665;-2.86;-9.73;0.62;-0.07;0.91;-0.21;8.75;2.73;14.35
10674;-2.81;-9.85;0.14;-0.07;0.91;-0.21;4.48;5.18;14.28
10683;-2.93;-9.71;0.00;-0.07;0.91;-0.20;-2.10;4.97;11.55
10691;-2.86;-9.68;0.01;-0.07;0.91;-0.20;-7.35;4.69;10.99
10700;-2.83;-9.42;0.02;-0.07;0.91;-0.20;-7.56;3.57;10.43
10709;-2.86;-9.16;0.09;-0.07;0.91;-0.19;-6.23;1.54;7.42
10718;-2.79;-9.18;0.29;-0.07;0.91;-0.19;-3.71;-0.70;5.60
10727;-2.69;-9.32;0.34;-0.07;0.91;-0.19;0.98;-0.07;5.39
10735;-2.73;-9.64;0.31;-0.07;0.91;-0.21;3.29;0.21;3.99
10744;-2.68;-9.76;0.20;-0.07;0.91;-0.21;-0.14;2.03;4.97
10753;-2.55;-9.93;0.19;-0.07;0.91;-0.21;-3.92;4.34;5.11
10762;-2.43;-9.85;0.15;-0.07;0.90;-0.20;-4.62;4.27;5.04
10771;-2.51;-9.55;0.28;-0.07;0.90;-0.20;-4.48;4.13;4.48
10779;-2.40;-9.43;0.69;-0.07;0.90;-0.20;-4.41;3.85;3.92
10788;-2.33;-9.27;0.87;-0.06;0.91;-0.19;-3.85;3.36;2.45
10797;-2.37;-9.25;0.84;-0.06;0.91;-0.19;-3.29;2.73;2.45
10806;-2.28;-9.45;0.73;-0.06;0.91;-0.20;-0.21;3.08;4.13
10815;-2.23;-9.62;0.67;-0.05;0.91;-0.20;2.80;2.59;5.11
10824;-2.22;-9.55;0.62;-0.05;0.91;-0.20;2.31;3.78;5.04
10832;-2.24;-9.67;0.56;-0.06;0.91;-0.22;-1.26;5.60;5.46
10841;-2.28;-9.57;0.57;-0.06;0.91;-0.22;-6.02;7.00;3.85
10850;-2.34;-9.53;0.37;-0.06;0.91;-0.22;-8.26;6.65;2.45
10859;-2.58;-9.46;0.32;-0.07;0.91;-0.21;-9.31;5.04;1.40
10868;-2.55;-9.48;0.60;-0.07;0.91;-0.21;-7.63;2.52;0.42
10877;-2.46;-9.35;0.70;-0.07;0.91;-0.21;-4.55;0.70;-0.14
10885;-2.38;-9.52;0.72;-0.06;0.91;-0.21;-2.31;1.47;-1.47
10894;-2.51;-9.70;0.35;-0.06;0.91;-0.21;-3.85;1.68;-1.89
10903;-2.49;-9.86;0.26;-0.06;0.91;-0.21;-3.85;0.28;-1.54
10912;-2.68;-9.99;0.05;-0.07;0.91;-0.21;-2.17;-0.91;-0.77
10921;-2.83;-9.92;0.11;-0.07;0.91;-0.21;-0.14;-2.73;1.61
10929;-2.68;-9.63;0.42;-0.07;0.91;-0.21;1.19;-4.55;3.43
10938;-2.71;-9.45;0.68;-0.07;0.91;-0.20;2.94;-3.43;3.64
10947;-2.48;-9.22;0.60;-0.07;0.91;-0.20;0.98;-0.70;2.87
10956;-2.27;-9.02;0.52;-0.07;0.91;-0.20;-2.38;1.40;0.56
10965;-2.21;-9.20;0.38;-0.06;0.92;-0.21;-4.90;1.40;-2.59
10974;-2.33;-9.77;0.33;-0.06;0.92;-0.21;-6.30;1.47;-3.99
10983;-2.40;-9.99;0.37;-0.06;0.92;-0.21;-4.62;0.07;-3.08
10991;-2.49;-10.12;0.41;-0.06;0.92;-0.22;-2.45;-1.19;-1.96
11000;-2.49;-10.04;0.44;-0.06;0.92;-0.22;-1.05;-1.54;0.42
11009;-2.46;-9.98;0.47;-0.06;0.92;-0.22;0.28;-1.54;2.59
11018;-2.43;-9.68;0.41;-0.07;0.91;-0.21;0.56;-0.91;4.20
11027;-2.11;-9.43;0.57;-0.07;0.91;-0.21;0.77;-0.70;3.92
11035;-2.10;-9.28;0.61;-0.07;0.91;-0.21;0.56;-0.42;1.61
11044;-2.14;-9.55;0.52;-0.06;0.92;-0.20;-1.33;0.70;-1.68
11053;-2.26;-9.88;0.40;-0.06;0.92;-0.20;-2.73;0.77;-2.59
11062;-2.44;-10.12;0.15;-0.06;0.92;-0.20;-1.54;-0.07;-1.68
11071;-2.53;-10.37;0.13;-0.06;0.90;-0.20;-0.49;-1.19;0.14
11079;-2.64;-10.37;0.13;-0.06;0.90;-0.20;0.91;-2.31;2.94
11088;-2.70;-10.09;0.09;-0.06;0.92;-0.22;3.43;-3.15;6.72
11097;-2.64;-9.62;0.15;-0.06;0.92;-0.22;5.60;-4.20;7.70
11106;-2.51;-9.50;0.35;-0.06;0.92;-0.22;5.32;-3.08;6.72
11115;-2.56;-9.58;0.17;-0.06;0.91;-0.21;3.29;-1.96;4.97
11123;-2.57;-9.67;-0.04;-0.06;0.91;-0.21;2.52;-1.12;4.90
11132;-2.53;-9.82;-0.09;-0.06;0.91;-0.21;1.19;-2.80;4.55
11141;-2.61;-10.09;-0.18;-0.06;0.91;-0.21;-0.70;-4.34;3.92
11150;-2.68;-10.34;-0.26;-0.06;0.91;-0.21;-3.71;-5.32;4.41
11159;-2.81;-10.36;-0.26;-0.06;0.91;-0.21;-5.39;-7.42;6.02
11168;-2.86;-10.45;-0.03;-0.07;0.91;-0.20;-5.74;-10.36;7.77
11176;-3.12;-10.55;-0.12;-0.07;0.91;-0.20;-4.13;-12.25;10.50
11185;-3.01;-10.40;-0.09;-0.07;0.91;-0.20;-2.73;-14.70;13.16
11194;-2.80;-10.08;-0.11;-0.07;0.91;-0.22;-1.82;-15.54;14.56
11203;-2.97;-10.02;-0.34;-0.07;0.91;-0.22;-4.13;-14.98;13.44
11212;-2.95;-10.01;-0.28;-0.07;0.91;-0.22;-6.44;-14.70;13.51
11221;-3.13;-9.79;-0.33;-0.06;0.92;-0.21;-9.24;-15.75;11.69
11230;-3.11;-9.66;-0.27;-0.06;0.92;-0.21;-11.55;-17.50;9.80
11238;-3.14;-9.59;-0.22;-0.06;0.92;-0.21;-11.76;-17.50;7.91
11247;-3.16;-9.71;-0.34;-0.06;0.91;-0.21;-9.59;-18.06;7.00
11256;-3.47;-9.71;-0.52;-0.06;0.91;-0.21;-9.03;-21.77;8.68
11265;-3.74;-10.17;-0.83;-0.06;0.91;-0.21;-9.80;-31.29;16.87
11274;-3.61;-10.19;-0.75;-0.07;0.92;-0.22;-8.19;-40.53;24.36
11283;-3.81;-10.07;-0.28;-0.07;0.92;-0.22;-6.23;-47.53;30.73
11291;-3.82;-9.88;0.11;-0.07;0.92;-0.22;-1.33;-50.47;34.79
11300;-3.85;-9.71;0.18;-0.06;0.91;-0.21;5.60;-49.98;37.66
11309;-3.85;-9.62;0.07;-0.06;0.91;-0.21;13.09;-50.26;39.41
11318;-3.58;-9.35;-0.11;-0.06;0.91;-0.21;21.28;-51.66;40.04
11327;-3.26;-9.07;-0.33;-0.06;0.91;-0.22;23.17;-51.59;39.83
11336;-3.01;-8.86;-0.27;-0.06;0.91;-0.22;20.02;-48.86;37.59
11345;-2.81;-8.81;-0.16;-0.06;0.91;-0.19;16.52;-45.85;32.90
11354;-2.84;-8.77;-0.12;-0.05;0.92;-0.19;12.53;-43.68;26.81
11362;-2.87;-8.80;-0.03;-0.05;0.92;-0.19;8.68;-43.82;21.00
11371;-3.01;-9.05;0.08;-0.05;0.91;-0.21;4.06;-43.54;18.27
11380;-2.88;-9.26;0.29;-0.05;0.91;-0.21;2.45;-44.03;21.63
11389;-2.74;-9.07;0.38;-0.05;0.91;-0.21;6.93;-44.87;24.64
11398;-2.48;-8.97;0.38;-0.05;0.90;-0.21;12.04;-44.87;23.52
11407;-2.20;-8.94;0.45;-0.05;0.90;-0.21;15.75;-43.40;20.23
11415;-2.05;-8.91;0.37;-0.05;0.90;-0.21;16.24;-40.25;16.52
11424;-1.98;-9.01;0.39;-0.05;0.91;-0.21;11.90;-31.99;11.97
11433;-2.05;-9.01;0.29;-0.05;0.91;-0.21;4.48;-24.64;5.11
11442;-2.26;-8.89;0.19;-0.05;0.91;-0.21;0.28;-19.46;-2.52
11451;-2.12;-9.19;0.04;-0.04;0.92;-0.20;-2.45;-13.72;-10.43
11460;-2.38;-9.48;0.02;-0.04;0.92;-0.20;-3.85;-8.82;-14.63
11468;-2.47;-9.81;-0.34;-0.04;0.92;-0.20;0.42;-10.36;-14.42
11477;-2.38;-10.16;-0.67;-0.05;0.92;-0.20;8.54;-20.58;-6.23
11486;-2.24;-10.34;-0.83;-0.05;0.92;-0.20;15.47;-32.76;-0.84
11495;-2.21;-10.11;-0.80;-0.05;0.92;-0.20;17.36;-40.46;2.10
11504;-2.25;-10.06;-0.40;-0.06;0.92;-0.20;12.67;-38.99;0.63
11513;-2.37;-9.92;-0.17;-0.06;0.92;-0.20;3.01;-32.48;-2.03
11521;-2.43;-10.23;-0.27;-0.06;0.92;-0.20;-4.76;-22.82;-4.62
11530;-2.51;-10.41;-0.25;-0.05;0.92;-0.20;-5.81;-15.33;-5.67
11539;-2.53;-10.70;-0.45;-0.05;0.92;-0.20;1.82;-14.70;-5.88
11548;-2.56;-10.89;-0.56;-0.05;0.92;-0.20;9.73;-18.06;-5.18
11557;-2.61;-11.04;-0.55;-0.06;0.92;-0.20;15.82;-20.79;-3.43
11566;-2.62;-11.03;-0.80;-0.06;0.92;-0.20;17.36;-26.25;0.91
11574;-2.58;-10.77;-0.90;-0.06;0.92;-0.20;16.73;-33.60;5.67
11583;-2.32;-10.35;-1.02;-0.06;0.92;-0.19;11.55;-38.01;7.28
11592;-2.14;-10.21;-0.73;-0.06;0.92;-0.19;2.87;-40.81;4.27
11601;-2.20;-10.18;-0.31;-0.06;0.92;-0.19;-5.18;-39.83;3.01
11610;-2.01;-9.94;-0.22;-0.06;0.93;-0.20;-12.81;-33.67;3.43
11618;-1.59;-9.60;-0.15;-0.06;0.93;-0.20;-23.24;-23.66;1.40
11627;-1.30;-9.62;-0.12;-0.06;0.93;-0.20;-32.13;-15.40;-2.24
11636;-1.18;-9.57;0.02;-0.06;0.93;-0.20;-31.36;-12.32;-4.97
11645;-1.15;-9.80;0.19;-0.06;0.93;-0.20;-25.90;-10.99;-8.19
11654;-1.51;-9.85;0.20;-0.07;0.93;-0.20;-19.53;-11.34;-10.43
11663;-1.27;-9.95;0.29;-0.07;0.93;-0.20;-16.17;-13.09;-11.48
11672;-1.40;-9.93;0.10;-0.07;0.93;-0.20;-15.89;-17.64;-9.87
11681;-1.38;-9.74;0.09;-0.07;0.92;-0.21;-12.67;-23.10;-9.59
11689;-1.23;-9.67;0.45;-0.07;0.92;-0.21;-10.29;-26.81;-8.89
11698;-1.67;-9.54;1.06;-0.07;0.92;-0.21;-8.47;-23.24;-8.40
11707;-1.45;-9.30;1.34;-0.07;0.92;-0.21;-8.75;-13.09;-7.28
11716;-1.38;-9.13;0.95;-0.07;0.92;-0.21;-10.85;-5.81;-8.12
11725;-1.12;-9.17;0.83;-0.07;0.92;-0.21;-11.13;-2.38;-9.24
11734;-0.78;-9.27;0.66;-0.09;0.92;-0.23;-10.71;-0.77;-9.94
11742;-0.90;-9.52;0.62;-0.09;0.92;-0.23;-11.20;-4.06;-13.51
11751;-0.62;-9.65;0.77;-0.09;0.92;-0.23;-9.03;-8.05;-15.61
11760;-0.97;-9.73;1.14;-0.09;0.93;-0.22;-7.42;-5.11;-13.30
11769;-1.22;-9.72;1.01;-0.09;0.93;-0.22;-6.51;-4.83;-15.75
11778;-1.16;-9.73;1.11;-0.09;0.93;-0.22;-6.23;-4.62;-0.56
11786;-1.36;-9.93;1.05;-0.09;0.92;-0.21;-5.53;-2.59;-13.44
11795;-1.61;-9.84;1.21;-0.09;0.92;-0.21;-2.17;-0.56;-10.92
11804;-1.55;-9.62;1.13;-0.09;0.92;-0.21;3.15;2.17;-9.03
11813;-1.42;-9.53;1.07;-0.09;0.92;-0.22;10.57;6.51;-8.26
11822;-1.51;-9.73;0.62;-0.09;0.92;-0.22;17.22;10.64;-8.05
11831;-1.30;-9.83;0.17;-0.09;0.92;-0.22;17.29;10.36;-9.17
11840;-1.25;-10.11;-0.13;-0.09;0.93;-0.22;13.37;6.44;-8.33
11848;-1.14;-10.33;1.73;-0.09;0.93;-0.22;3.78;2.24;-8.82
11857;-1.23;-10.32;0.17;-0.09;0.93;-0.22;-4.06;0.35;-7.77
11866;-1.69;-10.55;0.52;-0.09;0.93;-0.22;-9.80;0.77;-7.07
11875;-1.77;-10.51;0.80;-0.09;0.93;-0.22;-14.49;5.18;-4.97
11884;-1.73;-10.34;0.93;-0.09;0.93;-0.23;-17.22;9.38;-4.20
11893;-1.74;-10.27;1.05;-0.10;0.92;-0.23;-13.16;12.67;-2.59
11901;-1.74;-10.15;0.88;-0.10;0.92;-0.23;-1.05;12.32;-2.10
11910;-0.03;-10.07;0.88;-0.10;0.93;-0.22;15.82;10.78;-0.98
11919;-1.74;-10.01;0.40;-0.10;0.93;-0.22;30.45;9.45;0.00
11928;-1.42;-9.86;-0.01;-0.10;0.93;-0.22;33.53;6.02;-1.40
11937;-1.45;-9.81;-0.10;-0.10;0.92;-0.22;28.63;2.59;-1.82
11946;-1.54;-9.86;-0.01;-0.10;0.92;-0.22;19.60;1.19;-0.70
11954;-1.32;-9.83;0.01;-0.10;0.92;-0.22;8.05;2.17;-1.75
11963;-1.18;-9.76;0.19;-0.10;0.93;-0.21;-0.21;1.68;-2.24
11972;-1.16;-9.99;0.48;-0.10;0.93;-0.21;-4.34;2.24;-1.75
11981;-1.10;-10.34;0.83;-0.10;0.93;-0.21;-9.87;4.97;-1.12
11989;-1.04;-10.47;0.97;-0.10;0.93;-0.22;-14.07;8.96;0.14
11998;-0.99;-10.67;1.03;-0.10;0.93;-0.22;-12.32;9.87;1.82
12007;-0.93;-10.77;1.03;-0.10;0.93;-0.22;-3.01;7.56;5.39
12016;-0.60;-10.78;1.01;-0.10;0.92;-0.22;7.35;3.64;7.98
12025;-0.34;-10.67;0.88;-0.10;0.92;-0.22;14.63;1.19;8.33
12034;0.00;-10.64;0.57;-0.10;0.92;-0.22;14.28;-1.47;7.00
12042;-0.02;-10.66;0.32;-0.10;0.94;-0.22;10.92;-4.13;7.28
12051;0.03;-10.62;0.47;-0.10;0.94;-0.22;4.83;-6.37;6.09
12060;0.04;-10.57;0.43;-0.10;0.94;-0.22;-0.21;-9.03;5.18
12069;-0.05;-10.44;0.62;-0.09;0.93;-0.23;-3.99;-11.06;5.53
12078;-0.59;-10.34;1.31;-0.09;0.93;-0.23;-7.56;-8.19;7.00
12087;-0.67;-10.22;1.69;-0.09;0.93;-0.23;-9.87;-2.59;10.15
12095;-0.83;-10.09;1.74;-0.10;0.93;-0.21;-10.08;4.83;12.39
12104;-0.78;-10.03;1.28;-0.10;0.93;-0.21;-8.05;9.38;12.60
12113;-0.75;-9.99;0.98;-0.10;0.93;-0.21;-0.91;8.68;13.23
12122;-0.82;-9.89;0.79;-0.09;0.94;-0.22;3.78;7.21;13.51
12131;-0.83;-9.93;0.65;-0.09;0.94;-0.22;2.38;7.42;11.62
12139;-0.97;-9.95;0.48;-0.09;0.94;-0.22;-2.52;7.42;10.15
12148;-1.05;-9.86;0.50;-0.09;0.93;-0.21;-6.72;5.39;8.75
12157;-1.00;-9.73;0.54;-0.09;0.93;-0.21;-7.00;3.78;7.70
12166;-1.06;-9.72;0.50;-0.09;0.93;-0.21;-8.12;3.15;7.14
12175;-1.09;-9.72;0.59;-0.09;0.92;-0.21;-7.42;3.78;6.58
12183;-1.39;-9.74;0.65;-0.09;0.92;-0.21;-5.18;6.51;7.56
12192;-1.51;-9.81;0.70;-0.09;0.92;-0.21;-3.99;11.27;8.19
12201;-1.45;-9.85;0.48;-0.09;0.92;-0.21;-4.13;14.84;8.12
12210;-1.13;-10.37;0.30;-0.09;0.92;-0.21;-6.93;14.91;6.51
12219;-0.90;-10.42;0.19;-0.10;0.93;-0.22;-8.89;12.74;8.75
12227;-0.66;-10.30;0.22;-0.10;0.93;-0.22;-10.08;7.91;9.45
12236;-0.47;-10.31;0.44;-0.10;0.93;-0.22;-11.55;4.90;8.54
12245;-0.64;-10.04;0.58;-0.09;0.93;-0.22;-12.32;1.68;6.51
12254;-0.54;-9.96;1.11;-0.09;0.93;-0.22;-12.81;1.54;5.32
12263;-0.61;-10.00;1.50;-0.09;0.93;-0.22;-14.07;7.42;6.51
12272;-0.56;-9.91;1.47;-0.10;0.93;-0.22;-13.30;13.86;8.26
12280;-0.49;-9.88;1.38;-0.10;0.93;-0.22;-12.67;35.42;8.75
12289;-0.21;-9.93;1.36;-0.10;0.93;-0.22;-13.23;18.55;10.08
12298;0.02;-9.83;1.36;-0.09;0.93;-0.22;-12.11;16.45;10.57
12307;-0.06;-9.45;1.34;-0.09;0.93;-0.22;-12.25;13.16;11.34
12316;-0.22;-9.41;1.26;-0.09;0.93;-0.22;-8.19;9.03;9.24
12324;-0.25;-9.35;1.08;-0.08;0.92;-0.23;-2.94;6.09;9.45
12333;-0.37;-9.16;0.71;-0.08;0.92;-0.23;-3.15;3.99;7.70
12342;-0.85;-9.42;0.70;-0.08;0.92;-0.23;-3.92;0.56;6.09
12351;-1.25;-9.66;0.95;-0.08;0.92;-0.23;-2.80;3.78;9.24
12360;-0.95;-9.43;0.67;-0.08;0.92;-0.23;-5.25;10.36;10.57
12368;-0.88;-9.48;0.41;-0.08;0.92;-0.23;-8.19;15.26;6.72
12377;-0.88;-9.55;0.14;-0.09;0.91;-0.23;-8.12;17.36;3.36
12386;-0.67;-9.80;0.01;-0.09;0.91;-0.23;-5.25;15.47;-0.07
12395;-0.70;-9.86;-0.21;-0.09;0.91;-0.23;-3.78;11.41;-0.84
12404;-0.65;-9.86;-0.29;-0.07;0.92;-0.22;-1.54;5.04;-4.20
12412;-0.87;-10.07;-0.28;-0.07;0.92;-0.22;-3.29;-0.14;-6.02
12421;-1.51;-10.17;-0.01;-0.07;0.92;-0.22;-7.07;0.00;-7.35
12430;-1.52;-10.10;-0.01;-0.07;0.91;-0.23;-14.49;4.69;-9.66
12439;-1.51;-10.22;0.04;-0.07;0.91;-0.23;-24.36;9.52;-11.62
12448;-1.68;-10.36;0.09;-0.07;0.91;-0.23;-31.85;12.39;-13.37
12457;-1.28;-10.27;0.29;-0.08;0.91;-0.23;-37.45;14.56;-14.77
12466;-1.18;-10.22;0.60;-0.08;0.91;-0.23;-37.59;11.62;-16.59
12474;-1.15;-10.32;1.25;-0.08;0.90;-0.23;-32.90;4.13;-17.78
12483;-1.07;-10.27;1.87;-0.08;0.90;-0.23;-22.26;-0.28;-15.40
12492;-0.70;-9.74;1.97;-0.08;0.90;-0.23;-8.68;-3.01;-14.91
12501;-0.73;-9.63;1.94;-0.08;0.89;-0.23;0.63;-9.03;-18.41
12510;-0.85;-9.81;2.65;-0.08;0.89;-0.23;2.80;-13.51;-21.35
12519;0.09;-9.71;3.60;-0.08;0.89;-0.23;-8.89;-13.93;-24.50
12528;0.53;-9.07;5.64;-0.08;0.90;-0.23;-32.83;-9.38;-29.96
12536;0.90;-7.98;7.55;-0.08;0.90;-0.23;-58.73;-4.13;-39.41
12545;1.79;-6.19;10.05;-0.08;0.90;-0.23;-81.41;-11.97;-51.17
12554;1.38;-1.92;13.19;-0.08;0.89;-0.23;-77.77;-33.04;-60.97
12563;-2.15;-1.49;17.01;-0.08;0.89;-0.23;-61.81;-65.66;-81.69
12572;-5.56;-1.11;22.39;-0.08;0.89;-0.23;-34.51;-50.40;-90.09
12581;-7.21;0.79;23.87;-0.09;0.87;-0.24;13.16;27.51;-94.85
12589;-11.54;1.65;21.30;-0.09;0.87;-0.24;47.81;148.61;-123.97
12598;-15.43;-1.40;14.46;-0.09;0.87;-0.24;52.15;295.40;-152.25
12607;-19.30;-5.81;0.99;-0.11;0.89;-0.24;13.16;392.00;-162.40
12616;-23.10;-13.94;-12.45;-0.11;0.89;-0.24;-39.69;409.22;-173.18
12625;-23.87;-27.11;-22.77;-0.11;0.89;-0.24;-34.86;336.14;-156.66
12634;-18.68;-45.20;-36.80;-0.11;0.87;-0.27;112.14;236.67;-28.21
12643;-5.47;-44.23;-52.40;-0.11;0.87;-0.27;360.50;120.12;272.58
12651;4.80;-14.85;-58.81;-0.11;0.87;-0.27;550.55;-137.69;439.11
12660;8.36;8.10;-37.89;-0.07;0.91;-0.20;327.95;-324.03;260.26
12669;0.31;8.69;-12.94;-0.07;0.91;-0.20;-170.45;-263.69;-66.08
12678;-6.83;4.97;6.45;-0.07;0.91;-0.20;-479.92;-161.98;-200.55
12687;-12.24;-2.49;20.33;-0.05;0.88;-0.21;-373.87;-114.24;-166.11
12696;-16.60;-10.86;26.27;-0.05;0.88;-0.21;-72.73;-75.60;-59.36
12705;-15.17;-13.96;23.80;-0.05;0.88;-0.24;82.74;-18.20;42.84
12714;-10.53;-10.81;16.72;-0.08;0.87;-0.24;128.03;51.87;102.06
12723;-5.99;-7.94;8.32;-0.08;0.87;-0.24;141.61;52.78;113.89
12732;-2.42;-6.47;0.22;-0.06;0.88;-0.22;143.22;42.14;112.98
12740;-0.11;-5.69;-4.92;-0.06;0.88;-0.22;109.55;23.52;83.16
12749;0.07;-5.96;-6.70;-0.06;0.88;-0.22;24.64;0.42;47.88
12758;-0.06;-6.47;-4.88;-0.06;0.89;-0.21;-19.18;-22.75;10.08
12767;-1.95;-6.36;-0.67;-0.06;0.89;-0.21;-37.80;-32.27;-11.13
12776;-2.86;-7.38;3.43;-0.06;0.89;-0.21;-45.99;-18.69;-17.64
12785;-3.49;-8.92;5.20;-0.06;0.88;-0.21;-29.26;-3.01;-12.88
12794;-3.31;-10.19;5.05;-0.06;0.88;-0.21;12.32;10.57;5.39
12803;-2.56;-11.10;3.00;-0.06;0.88;-0.21;41.51;21.56;21.14
12811;-1.62;-11.10;0.41;-0.05;0.87;-0.20;41.23;25.13;25.34
12820;-0.56;-10.25;-1.54;-0.05;0.87;-0.20;32.27;13.93;22.75
12829;0.01;-10.51;-2.21;-0.05;0.87;-0.20;17.85;4.20;15.54
12838;-0.19;-10.51;-2.67;-0.05;0.88;-0.22;0.49;-4.27;7.91
12847;-0.58;-10.02;-2.14;-0.05;0.88;-0.22;-10.01;-13.79;1.54
12856;-0.89;-9.80;-1.31;-0.05;0.88;-0.22;-22.47;-17.50;-3.85
12864;-1.60;-9.23;-0.01;-0.05;0.88;-0.19;-30.17;-17.99;-7.70
12873;-2.23;-9.42;1.84;-0.05;0.88;-0.19;-29.33;-14.07;-9.31
12882;-3.05;-10.39;2.76;-0.05;0.88;-0.19;-18.90;-7.91;-6.37
12891;-3.37;-11.46;2.59;-0.05;0.88;-0.21;-8.82;-1.96;2.03
12900;-3.19;-11.49;1.97;-0.05;0.88;-0.21;2.52;-1.75;10.29
12909;-2.92;-11.21;1.73;-0.05;0.88;-0.21;8.82;-2.10;15.61
12918;-2.85;-10.58;1.16;-0.05;0.88;-0.21;5.81;-0.98;14.98
12926;-2.51;-10.48;0.47;-0.05;0.88;-0.21;1.05;-3.36;12.39
12935;-2.51;-10.56;0.20;-0.05;0.88;-0.21;-3.43;-4.90;10.22
12944;-2.68;-10.57;-0.10;-0.05;0.87;-0.21;-6.65;-6.30;8.68
12953;-2.87;-10.32;0.21;-0.05;0.87;-0.21;-8.96;-8.54;8.05
12962;-3.07;-10.04;1.25;-0.04;0.87;-0.21;-9.66;-7.42;7.70
12971;-3.35;-9.75;1.67;-0.04;0.87;-0.21;-9.80;-1.82;8.33
12979;-3.29;-9.31;2.16;-0.04;0.87;-0.21;-6.65;1.54;9.52
12988;-2.80;-9.22;2.16;-0.05;0.88;-0.22;0.14;7.07;9.80
12997;-2.52;-9.29;0.79;-0.05;0.88;-0.22;-0.98;10.43;7.63
13006;-2.06;-9.54;0.09;-0.05;0.88;-0.22;-5.04;5.25;3.92
13015;-2.06;-9.71;0.10;-0.05;0.87;-0.21;-11.55;0.07;0.07
13023;-2.10;-9.77;0.58;-0.05;0.87;-0.21;-16.31;-3.57;-2.59
13032;-2.18;-9.99;0.69;-0.05;0.87;-0.21;-14.07;-6.65;-1.89
13041;-2.33;-9.70;1.15;-0.05;0.87;-0.21;-9.80;-7.98;0.98
13050;-2.18;-9.53;1.63;-0.05;0.87;-0.21;-4.27;-7.14;2.94
13059;-2.16;-9.52;1.47;-0.05;0.87;-0.21;-3.99;-2.66;3.15
13068;-1.82;-9.82;0.97;-0.04;0.88;-0.21;-6.30;3.15;2.73
13077;-1.74;-10.12;0.65;-0.04;0.88;-0.21;-9.03;4.62;2.80
13085;-1.93;-10.37;0.23;-0.04;0.88;-0.21;-6.86;1.40;6.02
13094;-1.72;-10.19;0.50;-0.04;0.87;-0.22;-3.08;-2.66;9.52
13103;-1.87;-9.70;0.88;-0.04;0.87;-0.22;1.61;-4.20;12.11
13112;-1.68;-9.56;0.96;-0.04;0.87;-0.22;3.43;-3.15;12.11
13121;-1.55;-9.43;0.60;-0.05;0.88;-0.22;3.64;-1.68;11.62
13130;-1.34;-9.29;0.09;-0.05;0.88;-0.22;3.92;-1.75;10.36
13139;-1.21;-9.28;-0.04;-0.05;0.88;-0.22;0.91;-1.68;7.07
13148;-1.34;-9.31;-0.01;-0.04;0.88;-0.22;-4.34;-3.36;3.15
13156;-1.64;-9.56;0.22;-0.04;0.88;-0.22;-7.63;-3.85;0.28
13165;-1.84;-9.74;0.34;-0.04;0.88;-0.22;-10.22;-2.87;-0.91
13174;-2.39;-9.78;0.58;-0.04;0.87;-0.23;-10.71;-2.45;0.35
13183;-2.38;-9.36;1.08;-0.04;0.87;-0.23;-6.79;-2.87;2.59
13192;-2.31;-9.07;1.20;-0.04;0.87;-0.23;-0.98;-0.91;5.04
13201;-2.18;-8.89;1.04;-0.03;0.87;-0.23;2.73;-0.14;5.39
13210;-2.07;-9.07;0.54;-0.03;0.87;-0.23;1.96;-0.21;4.27
13219;-1.92;-9.48;0.13;-0.03;0.88;-0.22;0.28;-1.05;2.73
13227;-1.84;-9.65;0.09;-0.03;0.88;-0.22;-1.75;-2.66;2.52
13236;-2.01;-9.66;0.31;-0.03;0.88;-0.22;-1.82;-4.55;2.87
13245;-1.93;-9.66;0.93;-0.04;0.87;-0.22;-1.89;-4.83;3.50
13254;-2.25;-9.73;1.20;-0.04;0.87;-0.22;-1.82;-2.66;4.06
13263;-2.25;-9.69;1.67;-0.04;0.87;-0.22;1.82;-0.42;5.18
13272;-2.19;-9.36;1.79;-0.04;0.88;-0.21;9.03;0.63;7.98
13280;-1.89;-9.13;1.63;-0.04;0.88;-0.21;13.09;4.62;8.40
13289;-1.62;-9.26;0.78;-0.04;0.88;-0.21;9.94;7.35;5.25
13298;-1.44;-9.75;-0.04;-0.03;0.87;-0.22;5.53;5.32;1.82
13307;-1.55;-9.98;-0.08;-0.03;0.87;-0.22;4.06;0.98;0.35
13316;-1.55;-10.11;0.06;-0.03;0.87;-0.22;2.94;-2.66;0.91
13325;-1.63;-9.95;0.31;-0.04;0.88;-0.21;2.10;-4.34;0.91
13334;-1.64;-9.91;0.60;-0.04;0.88;-0.21;1.96;-4.69;0.84
13342;-3.58;-9.83;0.91;-0.04;0.88;-0.21;0.84;-3.57;0.56
13351;-2.00;-9.78;1.08;-0.04;0.88;-0.21;-0.77;-0.21;0.21
13360;-2.12;-9.74;1.11;-0.04;0.88;-0.21;0.56;1.75;0.56
13369;-2.33;-9.99;1.01;-0.04;0.88;-0.21;2.87;3.08;1.40
13378;-2.28;-10.18;0.86;-0.04;0.88;-0.21;3.99;3.64;2.66
13387;-2.18;-10.04;0.40;-0.04;0.88;-0.21;6.37;2.24;3.78
13396;-2.06;-9.93;0.24;-0.04;0.88;-0.21;7.70;-0.07;3.99
13404;-1.84;-9.80;0.19;-0.04;0.88;-0.22;5.67;-1.54;3.15
13413;-1.87;-9.72;0.21;-0.04;0.88;-0.22;1.19;-3.01;0.35
13422;-1.84;-9.77;0.28;-0.04;0.88;-0.22;-3.71;-4.27;-2.45
13431;-2.09;-9.91;0.67;-0.03;0.87;-0.21;-6.79;-4.06;-4.41
13440;-2.20;-10.00;1.05;-0.03;0.87;-0.21;-6.02;-4.13;-3.64
13449;-2.49;-10.19;1.38;-0.03;0.87;-0.21;-3.01;-3.08;-1.61
13457;-2.48;-10.34;1.73;-0.03;0.88;-0.22;0.35;17.78;2.24
13466;-2.76;-10.27;1.64;-0.03;0.88;-0.22;7.56;1.12;6.79
13475;-2.65;-10.27;1.59;-0.04;0.88;-0.22;14.91;0.63;11.27
13484;-2.18;-9.69;1.48;-0.04;0.88;-0.22;18.48;1.26;13.16
13493;-2.05;-9.48;0.95;-0.04;0.88;-0.22;15.75;2.80;10.43
13502;-1.86;-9.55;0.60;-0.03;0.88;-0.21;10.36;2.38;6.37
13511;-1.85;-9.77;0.39;-0.03;0.88;-0.21;5.95;1.33;3.22
13519;-1.86;-10.04;0.40;-0.03;0.88;-0.21;1.96;-0.07;1.05
13528;-2.15;-9.98;0.41;-0.03;0.88;-0.22;-3.43;-0.91;0.14
13537;-2.28;-10.01;0.98;-0.03;0.88;-0.22;-5.67;-2.38;0.21
13546;-2.53;-10.10;1.22;-0.03;0.88;-0.22;-2.38;-1.96;1.96
13555;-2.59;-10.21;1.24;-0.03;0.89;-0.21;1.75;0.77;6.09
13564;-2.49;-10.11;1.03;-0.03;0.89;-0.21;9.03;1.47;10.36
13573;-2.18;-9.80;0.25;-0.03;0.89;-0.21;14.00;1.12;12.18
13582;-2.07;-9.66;-0.37;-0.04;0.88;-0.21;10.85;0.91;9.31
13591;-1.79;-9.71;-1.08;-0.04;0.88;-0.21;5.25;-1.05;5.67
13600;-1.51;-9.63;-1.80;-0.04;0.88;-0.21;-0.49;-5.11;2.10
13609;-1.39;-9.55;-1.99;-0.02;0.88;-0.20;-7.00;-9.17;-1.89
13617;-1.24;-9.51;-2.17;-0.02;0.88;-0.20;-16.31;-14.07;-6.02
13626;-1.34;-9.38;-2.20;-0.02;0.88;-0.20;-25.83;-19.95;-11.90
13635;-1.54;-9.39;-1.72;-0.02;0.88;-0.21;-34.09;-27.23;-14.28
13644;-2.20;-9.59;-0.73;-0.02;0.88;-0.21;-38.50;-28.56;-16.94
13653;-2.44;-9.86;-0.23;-0.02;0.88;-0.21;-41.23;-29.54;-15.26
13662;-2.66;-9.81;0.05;-0.03;0.87;-0.22;-36.05;-28.63;-10.43
13671;-2.86;-9.84;0.25;-0.03;0.87;-0.22;-27.93;-28.28;-4.97
13680;-2.76;-9.61;0.24;-0.03;0.87;-0.22;-0.77;-26.67;-1.26
13688;-2.81;-9.20;-0.09;-0.03;0.88;-0.22;-13.79;-24.08;-1.40
13697;-2.78;-9.20;-0.34;-0.03;0.88;-0.22;-13.93;-21.28;-4.55
13706;-3.06;-9.29;-0.36;-0.03;0.87;-0.24;-15.96;-21.00;-7.63
13715;-3.06;-9.76;-0.85;-0.03;0.87;-0.24;-19.18;-25.97;-5.67
13724;-3.12;-9.95;-0.56;-0.03;0.87;-0.24;-19.39;-34.51;-1.61
13733;-3.36;-10.09;-0.21;-0.04;0.87;-0.22;-18.83;-40.04;1.96
13742;-3.45;-10.23;0.31;-0.04;0.87;-0.22;-15.33;-40.25;5.18
13751;-3.75;-10.27;0.45;-0.04;0.87;-0.22;-12.04;-38.36;10.08
13760;-3.56;-10.19;0.47;-0.04;0.87;-0.24;-7.35;-38.01;18.06
13769;-3.88;-10.24;0.52;-0.04;0.87;-0.24;-0.14;-39.48;26.18
13777;-3.65;-10.02;0.95;-0.04;0.87;-0.24;9.45;-43.33;30.03
13786;-3.34;-9.53;1.28;-0.03;0.86;-0.23;18.83;-42.63;32.41
13795;-2.92;-9.15;1.49;-0.03;0.86;-0.23;22.12;-38.78;29.82
13804;-2.45;-8.84;1.49;-0.03;0.86;-0.23;21.28;-30.24;22.19
13813;-2.14;-8.71;1.21;-0.03;0.88;-0.23;15.68;-21.56;14.21
13822;-2.00;-8.83;1.24;-0.03;0.88;-0.23;6.93;-16.31;7.07
13830;-1.85;-8.99;0.99;-0.03;0.88;-0.23;1.68;-12.32;-3.08
13839;-2.03;-9.20;1.26;-0.04;0.89;-0.22;-4.55;-9.10;-8.61
13848;-2.40;-9.71;1.19;-0.04;0.89;-0.22;-10.43;-5.46;-9.31
13857;-2.72;-9.86;1.26;-0.04;0.89;-0.22;-10.22;-7.84;-5.74
13866;-2.56;-10.00;0.93;-0.04;0.88;-0.24;-4.27;-13.72;2.24
13875;-2.76;-10.06;1.05;-0.04;0.88;-0.24;4.76;-21.28;7.84
13884;-2.57;-10.02;1.14;-0.04;0.88;-0.24;12.88;-22.19;13.30
13893;-2.35;-9.96;1.18;-0.03;0.88;-0.23;15.19;-18.83;12.46
13902;-2.31;-9.96;1.31;-0.03;0.88;-0.23;11.97;-14.42;7.35
13910;-2.17;-10.09;1.54;-0.03;0.88;-0.23;5.67;-5.88;1.26
13919;-1.97;-9.89;1.74;-0.04;0.88;-0.23;2.03;4.76;-4.97
13928;-1.96;-9.93;1.72;-0.04;0.88;-0.23;-0.70;15.82;-13.79
13937;-2.08;-10.24;1.48;-0.04;0.90;-0.23;2.73;22.54;-20.79
13946;-2.18;-10.47;1.13;-0.04;0.90;-0.23;8.75;26.74;-22.61
13955;-2.18;-10.72;0.58;-0.04;0.90;-0.23;15.82;25.06;-17.85
13964;-2.38;-11.13;0.11;-0.04;0.89;-0.22;20.51;15.89;-8.05
13973;-2.53;-11.15;-0.19;-0.04;0.89;-0.22;25.48;3.29;7.70
13981;-1.89;-10.52;-0.19;-0.04;0.89;-0.22;27.51;-5.81;18.34
13990;-2.05;-10.07;0.08;-0.05;0.91;-0.22;23.24;-7.21;17.57
13999;-1.90;-9.87;0.09;-0.05;0.91;-0.22;15.19;-6.79;13.30
14008;-1.85;-9.81;0.10;-0.05;0.91;-0.22;8.26;-4.69;7.56
14017;-1.90;-9.94;0.29;-0.06;0.91;-0.22;4.34;-3.36;5.74
14026;-0.03;-9.99;0.37;-0.06;0.91;-0.22;1.12;1.33;4.27
14035;-1.53;-9.74;0.32;-0.06;0.91;-0.22;-4.41;6.44;1.47
14043;-1.69;-9.76;0.37;-0.07;0.92;-0.21;-12.04;11.27;-3.64
14052;-1.69;-9.87;0.54;-0.07;0.92;-0.21;-17.22;15.54;-7.21
14061;-1.78;-10.25;0.70;-0.07;0.92;-0.21;-0.28;18.62;-11.97
14070;-2.10;-10.34;0.31;-0.06;0.92;-0.22;-13.93;13.23;-13.30
14079;-2.36;-10.69;0.21;-0.06;0.92;-0.22;-7.91;3.85;-8.05
14088;-2.12;-10.78;0.06;-0.06;0.92;-0.22;1.26;-7.84;-1.61
14097;-2.12;-10.60;0.26;-0.07;0.92;-0.22;8.40;-15.12;2.24
14105;-2.12;-10.55;0.39;-0.07;0.92;-0.22;7.21;-18.27;2.80
14114;-2.10;-10.49;0.74;-0.07;0.92;-0.22;3.22;-16.94;3.29
14123;-1.82;-10.39;1.22;-0.07;0.92;-0.22;-3.50;-9.94;3.92
14132;-1.62;-10.12;1.25;-0.07;0.92;-0.22;-8.19;1.12;4.90
14141;-1.08;-9.74;1.13;-0.07;0.92;-0.22;-14.70;14.07;4.34
14150;-1.03;-9.53;1.31;-0.07;0.92;-0.22;-18.41;24.15;3.57
14158;-1.28;-9.47;0.98;-0.07;0.92;-0.22;-14.35;31.08;3.36
14167;-1.45;-9.42;1.07;-0.07;0.92;-0.22;-8.75;30.10;-0.77
14176;-1.45;-9.43;0.74;-0.07;0.92;-0.23;-2.17;23.03;-4.27
14185;-1.64;-9.58;0.69;-0.07;0.92;-0.23;1.96;17.36;-5.74
14194;-1.39;-9.56;0.67;-0.07;0.92;-0.23;7.28;10.78;-5.04
14202;-1.44;-9.58;0.62;-0.07;0.92;-0.23;15.75;6.09;-2.59
14211;-1.27;-9.53;0.95;-0.07;0.92;-0.23;22.68;7.28;-0.49
14220;-0.92;-9.27;0.86;-0.07;0.92;-0.23;21.91;12.95;-1.89
14229;-0.51;-9.10;0.71;-0.07;0.92;-0.23;13.72;21.14;-6.93
14238;-0.36;-9.20;0.67;-0.07;0.92;-0.23;0.70;27.93;-13.23
14246;-0.80;-9.53;0.98;-0.07;0.91;-0.23;-7.98;33.88;-14.98
14255;-1.30;-9.37;0.72;-0.07;0.91;-0.23;-11.76;33.95;-14.28
14264;-1.33;-9.76;0.85;-0.07;0.91;-0.23;-10.43;29.75;-12.95
14273;-1.79;-9.75;0.76;-0.07;0.92;-0.22;-1.47;22.82;-10.36
14282;-1.85;-9.83;0.99;-0.07;0.92;-0.22;6.30;14.28;-6.72
14291;-1.78;-9.63;0.87;-0.07;0.92;-0.22;13.72;12.53;-3.36
14299;-1.83;-9.49;0.78;-0.07;0.93;-0.22;18.20;13.16;-2.80
14308;-0.03;-9.40;0.86;-0.07;0.93;-0.22;20.79;12.67;-3.50
14317;-1.77;-9.45;0.71;-0.07;0.93;-0.22;25.06;12.32;-3.71
14326;-1.46;-9.62;0.45;-0.07;0.92;-0.21;29.19;11.90;-4.55
14335;-1.44;-9.81;0.28;-0.07;0.92;-0.21;26.39;11.90;-5.53
14344;-1.26;-9.73;0.24;-0.07;0.92;-0.21;16.59;12.67;-5.60
14352;-1.44;-9.67;0.22;-0.07;0.91;-0.21;4.76;11.06;-7.77
14361;-1.56;-9.66;0.39;-0.07;0.91;-0.21;-3.29;5.88;-8.40
14370;-1.67;-9.81;0.59;-0.07;0.91;-0.21;-5.32;0.98;-6.16
14379;-1.69;-9.93;0.75;-0.06;0.92;-0.22;-6.37;-1.61;-3.15
14388;-1.59;-9.83;0.88;-0.06;0.92;-0.22;-4.62;-3.36;-0.07
14397;-1.64;-9.78;1.16;-0.06;0.92;-0.22;-0.77;-3.92;1.26
14405;-1.59;-9.76;1.27;-0.06;0.92;-0.23;5.32;-2.38;1.47
14414;-1.24;-9.54;1.16;-0.06;0.92;-0.23;12.74;0.35;0.77
14423;-1.05;-9.48;0.85;-0.06;0.92;-0.23;16.73;3.08;-1.05
14432;-0.93;-9.65;0.74;-0.07;0.93;-0.22;18.48;5.25;-3.01
14441;-0.80;-9.76;0.52;-0.07;0.93;-0.22;16.52;6.65;-4.27
14449;-0.55;-9.78;0.32;-0.07;0.93;-0.22;12.18;5.46;-5.18
14458;-0.62;-9.93;0.17;-0.07;0.92;-0.22;8.54;3.85;-4.34
14467;-0.88;-9.97;0.26;-0.07;0.92;-0.22;5.46;3.01;-3.92
14476;-1.08;-9.98;0.45;-0.07;0.92;-0.22;4.83;3.36;-3.36
14485;-1.08;-10.11;0.45;-0.07;0.93;-0.22;4.55;4.62;-2.52
14493;-0.96;-10.22;0.37;-0.07;0.93;-0.22;4.41;6.44;-1.68
14502;-0.80;-10.21;0.45;-0.06;0.93;-0.21;5.95;7.56;-1.54
14511;-0.55;-10.50;0.32;-0.06;0.93;-0.21;8.26;6.93;-2.31
14520;-0.36;-10.80;0.04;-0.06;0.93;-0.21;9.59;4.69;-3.08
14529;-0.18;-10.86;0.03;-0.08;0.93;-0.21;7.35;0.63;-3.64
14537;0.02;-11.03;0.01;-0.08;0.93;-0.21;2.17;-4.13;-3.99
14546;-1.82;-10.98;0.37;-0.08;0.93;-0.21;-2.10;-7.42;-4.83
14555;-0.32;-11.10;0.84;-0.07;0.93;-0.21;-4.41;-9.66;-3.57
14564;-0.45;-11.15;1.27;-0.07;0.93;-0.21;-3.50;-6.23;2.10
14573;-0.62;-10.78;1.49;-0.07;0.93;-0.21;-3.57;0.14;7.42
14582;-0.67;-10.67;1.36;-0.07;0.93;-0.20;-4.13;6.65;8.05
14590;-0.71;-10.54;1.08;-0.07;0.93;-0.20;-3.01;7.91;8.75
14599;-0.80;-10.42;0.97;-0.07;0.93;-0.20;0.00;7.14;9.10
14608;-0.80;-10.34;0.78;-0.06;0.93;-0.21;2.10;5.46;9.17
14617;-0.73;-10.19;0.69;-0.06;0.93;-0.21;1.82;3.78;9.03
14626;-0.61;-10.16;0.53;-0.06;0.93;-0.21;-1.26;3.36;9.45
14634;-0.58;-10.04;0.71;-0.06;0.93;-0.21;-4.06;2.87;8.89
14643;-0.57;-9.88;0.52;-0.06;0.93;-0.21;-5.81;0.77;7.14
14652;-0.51;-9.66;0.78;-0.06;0.93;-0.21;-6.58;-0.28;5.11
14661;-0.65;-9.77;0.83;-0.07;0.93;-0.21;-6.65;-0.14;2.24
14670;-0.78;-10.04;0.92;-0.07;0.93;-0.21;-5.95;0.14;0.91
14678;-0.96;-10.24;1.00;-0.07;0.93;-0.21;-3.57;1.96;4.76
14687;-0.89;-10.25;1.00;-0.07;0.92;-0.21;-2.24;4.27;9.73
14696;-0.75;-10.09;0.84;-0.07;0.92;-0.21;-3.57;6.72;12.25
14705;-0.62;-10.02;0.67;-0.07;0.92;-0.21;-4.97;5.88;12.74
14714;-0.82;-9.95;0.57;-0.06;0.92;-0.21;-3.43;1.47;12.25
14723;-1.00;-9.86;0.52;-0.06;0.92;-0.21;-1.54;-5.53;11.41
14731;-0.77;-9.91;0.32;-0.06;0.92;-0.21;-3.29;-13.51;11.13
14740;-0.19;-10.02;0.47;-0.05;0.92;-0.21;-8.40;-16.31;12.53
14749;-0.26;-9.87;0.62;-0.05;0.92;-0.21;-14.35;-19.39;11.20
14758;0.15;-9.73;0.89;-0.05;0.92;-0.21;-21.49;-16.80;11.76
14767;0.43;-9.72;0.99;-0.06;0.92;-0.23;-30.66;-11.55;9.94
14776;0.19;-9.51;1.13;-0.06;0.92;-0.23;-34.58;-9.73;8.82
14784;-0.09;-9.77;1.38;-0.06;0.92;-0.23;-34.86;-10.71;9.80
14793;0.03;-9.71;1.62;-0.06;0.92;-0.23;-31.22;-8.19;11.90
14802;0.10;-9.44;1.67;-0.06;0.92;-0.23;-30.17;-3.29;16.38
14811;-0.05;-9.53;1.85;-0.05;0.92;-0.23;-26.74;-0.84;17.43
14820;-0.23;-9.40;1.83;-0.05;0.92;-0.23;-13.58;-0.70;17.29
14829;-0.65;-9.20;1.63;-0.05;0.92;-0.23;6.72;-2.17;19.18
14838;-0.75;-9.22;1.07;-0.04;0.91;-0.23;25.41;-5.74;17.08
14846;-0.61;-9.11;0.38;-0.04;0.91;-0.23;32.13;-10.29;10.92
14855;-0.47;-9.17;0.09;-0.04;0.91;-0.23;30.03;-11.76;5.04
14864;-0.50;-9.12;-0.29;-0.05;0.91;-0.22;21.42;-9.87;0.91
14873;-0.84;-9.50;0.04;-0.05;0.91;-0.22;6.30;-5.11;-2.38
14882;-1.18;-9.72;0.43;-0.05;0.91;-0.22;-11.69;1.82;-2.38
14890;-1.52;-9.69;0.22;-0.05;0.92;-0.22;-17.92;9.45;-0.07
14899;-1.45;-9.74;0.01;-0.05;0.92;-0.22;-23.31;13.02;-0.42
14908;-1.30;-9.83;-0.17;-0.05;0.92;-0.22;-24.85;10.71;1.19
14917;-1.67;-9.73;-0.04;-0.04;0.92;-0.23;-17.64;5.18;2.31
14926;-1.87;-9.71;0.03;-0.04;0.92;-0.23;-8.12;-1.75;-0.21
14935;-1.95;-9.71;0.25;-0.04;0.92;-0.23;-4.41;-2.80;-2.87
14944;-1.77;-9.71;0.30;-0.05;0.92;-0.23;-6.44;0.70;-6.72
14952;-1.74;-9.89;0.07;-0.05;0.92;-0.23;-9.73;1.89;-11.69
14961;-2.09;-10.07;0.04;-0.05;0.92;-0.23;-11.90;-2.17;-15.12
14970;-2.20;-10.39;0.33;-0.04;0.91;-0.24;-14.56;-3.29;-15.05
14979;-2.41;-10.39;0.19;-0.04;0.91;-0.24;-17.22;-2.17;-11.27
14988;-2.04;-10.35;0.34;-0.04;0.91;-0.24;-21.63;0.49;-11.48
14997;-1.71;-10.29;0.55;-0.05;0.91;-0.22;-27.37;3.85;-14.14
15005;-1.37;-10.39;0.84;-0.05;0.91;-0.22;-27.51;2.80;-15.68
complete
