Time(ms);AccX(m/s^2);AccY(m/s^2);AccZ(m/s^2);MagX(gauss);MagY(gauss);MagZ(gauss);GyroX(dps);GyroY(dps);GyroZ(dps)
32;0.99;-9.72;1.90;0.12;0.81;-0.28;-4.47;-6.09;-1.44
41;1.06;-9.74;1.87;0.12;0.81;-0.28;-5.36;-5.99;-2.07
50;1.03;-9.75;1.97;0.12;0.81;-0.28;-4.77;-5.77;-1.88
59;1.02;-9.74;1.96;0.12;0.80;-0.28;-4.42;-5.20;-1.65
67;1.00;-9.73;2.00;0.12;0.80;-0.28;-3.76;-4.64;-1.81
76;1.03;-9.74;1.93;0.12;0.80;-0.28;-3.67;-4.02;-2.00
85;0.98;-9.73;1.86;0.11;0.80;-0.28;-3.67;-3.64;-2.17
94;0.95;-9.72;1.70;0.11;0.80;-0.28;-3.95;-3.56;-2.42
102;0.91;-9.72;1.75;0.11;0.80;-0.28;-3.43;-3.56;-2.69
111;0.93;-9.73;1.67;0.11;0.80;-0.28;-2.84;-3.74;-2.86
120;0.96;-9.75;1.70;0.11;0.80;-0.28;-4.42;-4.21;-2.79
129;0.92;-9.76;1.72;0.11;0.80;-0.28;-2.05;-4.25;-2.96
137;0.94;-9.78;1.66;0.11;0.81;-0.26;-1.89;-4.24;-3.08
146;0.96;-9.75;1.74;0.11;0.81;-0.26;-2.41;-3.17;-3.00
155;0.91;-9.80;1.81;0.11;0.81;-0.26;-2.94;-1.45;-2.92
164;0.96;-9.80;1.96;0.11;0.80;-0.28;-3.32;-0.26;-2.28
172;0.98;-9.75;1.80;0.11;0.80;-0.28;-3.55;0.14;-2.41
181;1.02;-9.74;1.94;0.07;0.81;-0.28;-3.57;0.44;-2.29
190;0.94;-9.72;1.87;0.11;0.81;-0.28;-3.38;0.17;-2.44
199;1.01;-9.72;1.85;0.11;0.81;-0.28;-2.33;0.11;-2.64
207;1.05;-9.73;1.88;0.11;0.81;-0.28;-0.98;0.41;-2.43
216;1.17;-9.68;1.86;0.11;0.81;-0.28;-0.21;0.16;-2.58
225;1.18;-9.69;1.84;0.11;0.81;-0.28;0.27;0.81;-2.85
233;1.39;-9.69;1.82;0.11;0.80;-0.28;0.94;1.29;-2.85
242;1.52;-9.75;1.81;0.11;0.80;-0.28;0.97;1.86;-3.37
251;1.59;-9.84;1.70;0.11;0.80;-0.28;0.90;1.91;-3.63
260;1.63;-9.85;1.71;0.11;0.81;-0.28;1.81;1.76;-3.74
268;1.69;-9.94;1.77;0.11;0.81;-0.28;2.27;1.39;-4.07
277;1.82;-9.97;1.68;0.11;0.81;-0.28;0.51;0.46;-3.98
286;1.96;-9.91;1.71;0.11;0.80;-0.28;-0.31;-0.24;-4.16
295;2.29;-9.83;1.81;0.11;0.80;-0.28;2.42;-1.43;-4.90
303;2.26;-9.84;1.82;0.11;0.80;-0.28;7.00;-3.08;-5.97
312;2.30;-9.89;1.74;0.11;0.81;-0.27;12.30;-4.92;-6.95
321;2.42;-9.96;1.87;0.11;0.81;-0.27;16.68;-6.85;-8.11
330;2.46;-10.06;2.04;0.11;0.81;-0.27;21.22;-7.77;-8.32
338;2.39;-10.16;2.29;0.10;0.81;-0.27;22.75;-6.09;-8.96
347;2.38;-10.23;2.38;0.10;0.81;-0.27;20.91;-2.42;-8.78
356;2.33;-10.27;2.21;0.10;0.81;-0.27;15.01;0.99;-8.46
364;2.36;-10.30;2.19;0.11;0.81;-0.27;7.98;3.94;-7.11
373;2.16;-10.27;2.05;0.11;0.81;-0.27;0.71;4.93;-8.24
382;2.57;-10.30;2.28;0.11;0.81;-0.27;-12.49;8.69;-3.82
391;2.26;-9.98;2.38;0.11;0.82;-0.27;-17.20;5.87;-4.83
400;3.31;-9.83;2.68;0.11;0.82;-0.27;-25.12;12.74;-1.57
408;2.83;-9.45;2.63;0.11;0.82;-0.27;-29.77;15.03;-0.52
417;3.19;-9.35;2.58;0.10;0.81;-0.28;-34.15;15.47;-1.14
426;3.17;-9.11;2.66;0.10;0.81;-0.28;-40.09;15.79;-3.58
435;3.20;-9.05;2.65;0.10;0.81;-0.28;-43.51;15.96;-5.61
443;3.14;-8.94;2.59;0.11;0.80;-0.29;-44.35;15.94;-7.43
452;3.11;-8.81;2.52;0.11;0.80;-0.29;-42.19;13.49;-9.56
461;3.21;-8.72;2.43;0.11;0.80;-0.29;-37.28;9.64;-11.28
470;3.20;-8.65;2.26;0.11;0.79;-0.28;-28.67;5.36;-13.74
478;3.03;-8.69;2.34;0.11;0.79;-0.28;-17.28;0.07;-15.95
487;2.78;-8.91;2.45;0.11;0.79;-0.28;-8.18;-2.00;-17.98
496;2.68;-9.20;2.48;0.11;0.80;-0.28;-2.96;-1.66;-19.48
505;2.70;-9.59;2.59;0.11;0.80;-0.28;-0.74;0.19;-20.66
513;2.70;-10.00;2.63;0.11;0.80;-0.28;-1.45;3.12;-20.60
522;2.87;-10.42;2.77;0.10;0.80;-0.28;-4.45;6.35;-19.61
531;3.00;-10.77;3.00;0.10;0.80;-0.28;-10.31;9.31;-17.61
540;3.10;-10.88;3.01;0.10;0.80;-0.29;-12.49;11.87;-15.02
548;3.22;-10.81;3.07;0.10;0.80;-0.29;-10.56;13.39;-12.79
557;3.15;-10.67;3.09;0.10;0.80;-0.29;-7.81;13.74;-10.55
566;3.03;-10.33;3.00;0.10;0.80;-0.29;-1.01;10.93;-7.27
575;3.05;-9.88;3.06;0.10;0.80;-0.29;10.37;8.12;-3.46
583;3.05;-9.43;3.35;0.10;0.80;-0.29;20.85;6.38;-3.88
592;2.79;-9.11;3.35;0.10;0.80;-0.28;29.76;6.16;-6.55
601;2.68;-9.03;3.16;0.10;0.80;-0.28;37.87;3.12;-12.36
610;2.57;-9.00;2.97;0.10;0.80;-0.28;35.53;-2.08;-17.63
618;2.23;-8.97;2.98;0.10;0.81;-0.28;31.83;-6.30;-22.33
627;1.20;-8.87;3.25;0.10;0.81;-0.28;23.57;-7.86;-21.23
636;0.47;-8.52;3.34;0.10;0.81;-0.28;11.58;-10.20;-19.95
645;-0.12;-7.90;3.21;0.09;0.81;-0.27;4.02;-11.89;-21.43
653;-0.97;-7.22;2.83;0.09;0.81;-0.27;-4.34;-11.32;-24.77
662;-2.13;-6.65;2.57;0.09;0.81;-0.27;-7.91;-9.79;-26.06
671;-3.48;-6.37;1.97;0.09;0.82;-0.27;9.71;-7.39;-31.67
680;-4.66;-6.08;1.58;0.09;0.82;-0.27;31.61;-7.03;-38.86
688;-5.45;-6.37;1.12;0.09;0.82;-0.27;55.63;-1.15;-48.13
697;-6.06;-6.94;0.69;0.08;0.81;-0.27;68.44;18.60;-59.64
706;-6.96;-8.47;-0.37;0.08;0.81;-0.27;64.79;41.13;-73.32
715;-7.27;-11.31;-2.25;0.08;0.81;-0.27;57.88;53.68;-80.02
723;-7.12;-14.42;-3.97;0.08;0.83;-0.26;60.37;56.10;-69.21
732;-6.73;-16.93;-5.26;0.08;0.83;-0.26;79.61;50.07;-37.31
741;-5.40;-17.71;-6.21;0.08;0.83;-0.26;111.45;37.81;5.79
750;-4.23;-15.68;-6.52;0.07;0.84;-0.24;145.30;22.89;52.26
758;-3.29;-11.78;-6.26;0.07;0.84;-0.24;156.52;4.72;80.04
767;-2.35;-8.59;-5.39;0.07;0.84;-0.24;136.04;-12.26;78.48
776;-1.86;-6.27;-4.17;0.09;0.83;-0.21;83.73;-27.52;56.36
785;-2.45;-5.79;-2.22;0.09;0.83;-0.21;12.22;-38.28;23.19
793;-2.86;-6.80;0.28;0.09;0.83;-0.21;-34.63;-45.89;-5.59
802;-3.55;-7.87;2.36;0.09;0.84;-0.21;-55.24;-45.31;-19.09
811;-4.02;-8.85;4.06;0.09;0.84;-0.21;-56.29;-37.91;-20.86
820;-4.18;-9.54;5.05;0.09;0.84;-0.21;-37.37;-27.21;-16.39
829;-3.45;-9.79;5.11;0.08;0.84;-0.23;-12.28;-14.19;-6.64
837;-2.55;-9.32;4.57;0.08;0.84;-0.23;7.55;3.18;6.47
846;-1.59;-8.85;3.62;0.08;0.84;-0.23;14.48;12.07;9.10
855;-0.62;-8.72;2.58;0.08;0.84;-0.22;14.28;18.19;5.58
864;0.02;-8.90;1.73;0.08;0.84;-0.22;10.05;17.86;-0.35
872;0.89;-9.10;1.08;0.08;0.84;-0.22;4.43;15.10;-7.12
881;1.01;-9.62;0.73;0.08;0.84;-0.22;-2.47;10.37;-10.99
890;0.97;-10.12;0.64;0.08;0.84;-0.22;-7.77;3.17;-13.66
899;0.89;-10.45;0.94;0.09;0.84;-0.21;-8.64;-2.84;-13.22
907;0.54;-10.49;1.48;0.09;0.84;-0.21;-8.36;-2.95;-12.01
916;0.50;-10.44;1.85;0.09;0.84;-0.21;-9.15;2.27;-8.93
925;0.34;-10.34;1.85;0.08;0.84;-0.22;-11.16;10.32;-7.43
934;0.39;-10.31;1.86;0.08;0.84;-0.22;-14.39;18.13;-7.20
942;0.28;-10.46;1.44;0.08;0.84;-0.22;-17.15;21.69;-7.97
951;0.37;-10.44;0.97;0.08;0.84;-0.22;-18.16;20.09;-7.83
960;0.36;-10.55;0.79;0.08;0.84;-0.22;-16.40;18.16;-7.96
969;0.39;-10.86;0.41;0.08;0.84;-0.22;-13.32;15.03;-8.09
977;0.26;-11.08;0.15;0.08;0.84;-0.23;-7.22;12.00;-6.26
986;0.10;-11.31;-0.12;0.08;0.84;-0.23;-2.48;9.51;-0.99
995;0.14;-11.20;-0.50;0.08;0.84;-0.23;-0.20;5.09;1.57
1004;0.30;-10.94;-0.73;0.09;0.84;-0.22;-1.82;0.74;4.89
1012;0.25;-10.55;-0.55;0.09;0.84;-0.22;-5.33;-2.87;6.09
1021;0.22;-10.25;-0.22;0.09;0.84;-0.22;-8.29;-4.72;6.27
1030;0.03;-10.01;0.26;0.09;0.83;-0.22;-9.79;-6.41;4.31
1039;0.00;-9.98;0.57;0.09;0.83;-0.22;-10.14;-7.11;2.09
1047;-0.14;-9.99;0.73;0.09;0.83;-0.22;-9.98;-5.28;1.44
1056;-0.17;-10.11;0.79;0.08;0.83;-0.23;-5.64;-3.58;2.38
1065;-0.22;-10.21;0.84;0.08;0.83;-0.23;0.87;-1.05;5.18
1074;-0.24;-10.13;0.66;0.08;0.83;-0.23;5.79;0.63;7.74
1082;0.03;-9.86;0.40;0.09;0.84;-0.22;8.58;1.50;9.70
1091;0.11;-9.57;0.34;0.09;0.84;-0.22;7.45;0.74;8.93
1100;0.17;-9.38;0.22;0.09;0.84;-0.22;2.84;0.10;5.49
1109;0.18;-9.35;0.20;0.09;0.83;-0.23;-5.28;-1.15;1.06
1117;-0.01;-9.57;0.25;0.09;0.83;-0.23;-10.55;-2.65;-3.19
1126;-0.19;-9.94;0.28;0.09;0.83;-0.23;-12.64;-3.75;-4.59
1135;-0.41;-10.20;0.46;0.09;0.84;-0.23;-10.82;-4.42;-3.37
1144;-0.31;-10.22;0.72;0.09;0.84;-0.23;-7.24;-4.73;-0.16
1152;-0.36;-10.19;0.78;0.09;0.84;-0.23;-3.07;-3.87;2.34
1161;-0.30;-10.26;0.75;0.09;0.83;-0.24;-0.35;-2.84;4.30
1170;-0.42;-10.26;0.63;0.09;0.83;-0.24;2.00;-2.09;6.67
1179;-0.36;-10.30;0.31;0.09;0.83;-0.24;2.13;-1.44;8.12
1187;-0.60;-10.24;0.09;0.09;0.83;-0.23;1.45;-1.34;10.11
1196;-0.60;-10.08;-0.14;0.09;0.83;-0.23;1.75;-2.80;12.37
1205;-0.59;-9.66;-0.22;0.09;0.83;-0.23;1.59;-5.80;14.11
1214;-0.66;-9.28;-0.29;0.09;0.83;-0.23;3.07;-7.78;14.18
1222;-0.68;-8.93;-0.17;0.09;0.83;-0.23;3.79;-8.53;12.77
1231;-0.75;-8.76;-0.15;0.09;0.83;-0.23;3.70;-9.44;11.03
1240;-0.77;-8.71;-0.14;0.09;0.83;-0.23;3.85;-8.72;9.93
1249;-0.77;-8.82;-0.20;0.09;0.83;-0.23;6.70;-9.06;9.07
1257;-1.03;-9.02;-0.16;0.09;0.83;-0.23;9.62;-9.61;8.56
1266;-1.04;-9.00;-0.11;0.09;0.83;-0.23;9.27;-10.91;6.35
1275;-0.94;-8.84;-0.16;0.09;0.83;-0.23;7.29;-12.10;6.05
1284;-0.64;-8.57;-0.06;0.09;0.83;-0.23;1.80;-13.11;4.62
1292;-0.62;-8.64;-0.18;0.09;0.83;-0.23;-9.35;-15.57;0.02
1301;-0.51;-9.18;0.02;0.09;0.83;-0.23;-22.55;-19.76;-6.12
1310;-0.76;-9.77;0.63;0.09;0.83;-0.22;-33.89;-24.75;-10.41
1319;-0.96;-10.41;1.19;0.09;0.83;-0.22;-37.91;-26.73;-10.81
1327;-1.27;-10.88;2.10;0.09;0.83;-0.22;-35.91;-25.09;-7.05
1336;-1.99;-11.30;2.54;0.08;0.83;-0.23;-30.54;-23.01;-1.52
1345;-1.76;-11.22;2.84;0.08;0.83;-0.23;-14.87;-19.85;6.47
1354;-1.51;-10.69;2.68;0.08;0.83;-0.23;0.85;-9.49;14.24
1363;-1.28;-9.99;1.85;0.08;0.83;-0.24;11.94;-2.29;17.99
1371;-0.83;-9.52;0.99;0.08;0.83;-0.24;22.48;0.40;17.70
1380;-0.07;-9.08;0.20;0.08;0.83;-0.24;27.51;-0.96;14.73
1389;0.43;-8.72;-0.46;0.09;0.83;-0.24;18.56;-5.40;9.90
1398;0.54;-8.62;-0.53;0.09;0.83;-0.24;-0.17;-9.50;1.33
1406;0.05;-8.82;-0.28;0.09;0.83;-0.24;-17.01;-11.38;-9.37
1415;-0.11;-9.18;-0.04;0.09;0.83;-0.23;-32.47;-12.48;-17.80
1424;-0.58;-9.74;0.74;0.09;0.83;-0.23;-40.84;-9.59;-22.97
1433;-0.95;-10.39;1.38;0.09;0.83;-0.23;-43.32;-5.09;-23.36
1441;-0.91;-10.77;1.75;0.08;0.84;-0.25;-37.34;0.54;-19.08
1450;-0.89;-10.84;1.91;0.08;0.84;-0.25;-29.02;8.86;-13.76
1459;-0.72;-10.76;1.55;0.08;0.84;-0.25;-19.63;10.10;-7.30
1468;-0.65;-10.34;0.98;0.08;0.83;-0.25;-9.59;10.74;-3.91
1477;-0.20;-10.02;0.38;0.08;0.83;-0.25;-2.69;5.40;-5.15
1485;-0.13;-9.81;0.02;0.08;0.83;-0.25;-1.78;0.12;-9.29
1494;-0.09;-9.80;0.05;0.09;0.83;-0.26;-3.93;-3.79;-13.47
1503;-0.26;-10.01;0.43;0.09;0.83;-0.26;-12.38;-4.03;-20.10
1512;-0.54;-10.45;0.82;0.09;0.83;-0.26;-23.51;-3.61;-25.91
1520;-0.88;-10.74;1.41;0.09;0.83;-0.26;-34.06;0.60;-28.05
1529;-1.00;-10.91;1.75;0.09;0.83;-0.26;-37.99;7.98;-26.70
1538;-1.65;-10.82;1.63;0.09;0.83;-0.26;-34.45;15.26;-19.67
1547;-0.91;-10.59;1.16;0.08;0.83;-0.27;-23.19;16.60;-14.01
1555;-0.56;-10.24;0.32;0.08;0.83;-0.27;-8.20;13.32;-10.20
1564;-0.28;-10.05;-0.46;0.08;0.83;-0.27;2.66;2.24;-9.35
1573;-0.08;-9.81;-0.78;0.08;0.83;-0.26;10.45;-12.36;-8.18
1582;0.76;-9.83;-0.56;0.08;0.83;-0.26;14.39;-23.69;-9.31
1590;0.44;-9.90;-0.05;0.07;0.83;-0.27;6.45;-27.24;-12.43
1599;0.07;-9.93;0.64;0.07;0.83;-0.27;-8.16;-26.79;-18.28
1608;-0.28;-10.27;1.25;0.07;0.83;-0.27;-23.21;-23.01;-23.45
1617;-0.47;-10.87;1.96;0.07;0.84;-0.26;-36.67;-14.40;-23.18
1625;-0.95;-11.06;2.41;0.07;0.84;-0.26;-42.34;-8.44;-19.25
1634;-0.69;-10.92;2.39;0.07;0.84;-0.26;-39.57;-6.05;-12.90
1643;-0.29;-10.48;2.12;0.07;0.83;-0.27;-30.15;-6.63;-6.42
1652;0.07;-10.37;1.87;0.07;0.83;-0.27;-13.89;-13.54;-0.88
1661;-0.09;-9.98;1.66;0.07;0.83;-0.27;-0.29;-20.87;2.41
1669;0.27;-9.82;1.58;0.06;0.84;-0.27;10.32;-24.45;2.36
1678;0.25;-9.69;1.60;0.06;0.84;-0.27;12.86;-28.95;-0.06
1687;0.11;-9.59;1.64;0.06;0.84;-0.27;8.55;-24.33;-3.30
1696;-0.07;-9.68;1.77;0.06;0.84;-0.27;-2.08;-19.72;-6.95
1704;-0.31;-9.61;1.96;0.06;0.84;-0.27;-12.75;-12.39;-8.74
1713;-0.55;-9.64;1.94;0.06;0.84;-0.27;-20.89;-2.66;-8.44
1722;-0.36;-9.52;1.84;0.06;0.84;-0.28;-24.56;2.33;-6.72
1731;-0.24;-9.15;1.55;0.06;0.84;-0.28;-21.83;4.22;-5.08
1740;0.04;-8.85;1.37;0.06;0.84;-0.28;-13.36;1.32;-4.59
1748;0.23;-8.68;1.28;0.05;0.84;-0.29;0.49;-7.55;-6.05
1757;0.54;-8.98;1.36;0.05;0.84;-0.29;15.63;-18.50;-8.53
1766;0.41;-9.47;1.70;0.05;0.84;-0.29;27.36;-26.40;-8.01
1775;0.04;-9.56;2.27;0.04;0.84;-0.28;34.87;-26.50;-5.22
1783;-0.29;-9.67;2.41;0.04;0.84;-0.28;34.33;-20.06;-1.94
1792;-0.32;-9.76;2.27;0.04;0.84;-0.28;28.29;-12.14;-0.15
1801;-0.49;-9.63;1.89;0.04;0.84;-0.28;18.66;-3.29;1.55
1810;-0.39;-9.46;1.49;0.04;0.84;-0.28;11.06;2.27;0.29
1818;-0.40;-9.72;1.24;0.04;0.84;-0.28;9.06;3.01;-1.28
1827;-0.42;-9.77;1.08;0.04;0.85;-0.26;17.20;-0.06;0.14
1836;-0.54;-9.71;1.24;0.04;0.85;-0.26;25.75;-4.23;0.41
1845;-0.60;-9.66;1.41;0.04;0.85;-0.26;31.96;-7.03;0.06
1853;-0.47;-9.65;1.40;0.05;0.85;-0.26;32.65;-9.16;-1.40
1862;-0.13;-9.50;1.47;0.05;0.85;-0.26;24.91;-8.94;-2.51
1871;0.10;-9.55;1.50;0.05;0.85;-0.26;12.87;-8.35;-4.24
1880;0.19;-9.74;1.47;0.05;0.86;-0.26;2.56;-7.66;-4.01
1888;0.12;-9.84;1.34;0.05;0.86;-0.26;-7.37;-7.75;-1.68
1897;0.03;-9.82;1.46;0.05;0.86;-0.26;-11.52;-7.83;1.76
1906;-0.06;-10.01;1.65;0.04;0.86;-0.25;-12.66;-7.24;3.05
1915;0.13;-10.19;1.62;0.04;0.86;-0.25;-11.65;-6.62;2.84
1923;0.43;-10.31;1.82;0.04;0.86;-0.25;-7.35;-5.55;5.14
1932;0.60;-10.21;1.90;0.04;0.86;-0.25;-1.39;-5.89;6.47
1941;0.82;-10.35;2.12;0.04;0.86;-0.25;6.46;-5.81;6.35
1950;1.10;-10.36;1.82;0.05;0.86;-0.25;14.07;-6.89;6.69
1958;1.53;-10.44;1.71;0.05;0.86;-0.25;18.61;-8.77;7.82
1967;1.49;-10.51;1.87;0.05;0.86;-0.25;16.01;-9.81;9.80
1976;1.48;-10.43;2.02;0.05;0.86;-0.25;13.19;-8.32;10.94
1985;1.45;-10.23;2.09;0.05;0.86;-0.25;4.47;-4.47;12.15
1993;1.47;-10.06;2.35;0.05;0.86;-0.25;-7.29;2.88;12.50
2002;1.34;-10.05;2.35;0.06;0.85;-0.25;-16.50;11.09;12.12
2011;1.65;-9.81;2.11;0.06;0.85;-0.25;-18.06;15.05;12.24
2020;1.82;-9.59;1.89;0.06;0.85;-0.25;-11.59;14.73;11.32
2028;1.99;-9.51;1.75;0.06;0.85;-0.24;0.26;11.75;9.17
2037;2.09;-9.53;1.63;0.06;0.85;-0.24;10.22;6.93;6.03
2046;2.23;-9.66;1.60;0.06;0.85;-0.24;15.18;2.41;2.76
2055;2.21;-9.91;1.61;0.06;0.85;-0.24;12.52;-0.54;1.35
2064;2.14;-9.83;1.52;0.06;0.85;-0.24;8.90;-3.03;1.07
2072;2.19;-9.72;1.56;0.06;0.85;-0.24;3.74;-5.49;-0.76
2081;1.87;-9.69;1.89;0.06;0.86;-0.25;-4.49;-5.40;-2.99
2090;1.35;-9.96;2.18;0.06;0.86;-0.25;-7.24;-2.44;-3.47
2099;0.82;-10.16;2.40;0.06;0.86;-0.25;-6.95;3.61;-2.34
2107;0.47;-10.27;2.25;0.05;0.85;-0.25;-3.86;8.38;-0.79
2116;0.23;-10.33;1.94;0.05;0.85;-0.25;-0.19;10.58;1.15
2125;0.08;-10.35;1.51;0.05;0.85;-0.25;3.75;10.11;2.85
2134;-0.01;-10.17;1.00;0.06;0.86;-0.25;7.39;6.67;4.36
2142;-0.08;-10.10;0.72;0.06;0.86;-0.25;9.89;1.09;4.70
2151;-0.28;-9.95;0.52;0.06;0.86;-0.25;8.72;-2.59;4.71
2160;-0.60;-9.82;0.54;0.05;0.85;-0.24;3.06;-4.56;3.54
2169;-0.78;-9.75;0.72;0.05;0.85;-0.24;-5.06;-4.52;1.13
2177;-1.07;-9.82;0.85;0.05;0.85;-0.24;-11.83;-2.20;-0.05
2186;-1.18;-9.83;1.02;0.06;0.86;-0.25;-11.73;2.05;0.47
2195;-1.09;-9.81;1.00;0.06;0.86;-0.25;-10.68;7.11;1.41
2204;-0.97;-9.73;0.97;0.06;0.86;-0.25;-7.49;8.86;0.92
2213;-0.79;-9.81;0.93;0.06;0.85;-0.24;-0.11;8.45;0.36
2221;-0.64;-10.01;0.95;0.06;0.85;-0.24;3.60;6.09;-0.04
2230;-0.48;-10.18;1.02;0.06;0.85;-0.24;7.00;4.02;0.83
2239;-0.25;-10.26;0.89;0.06;0.85;-0.24;8.17;2.04;2.20
2247;-0.06;-10.23;0.89;0.06;0.85;-0.24;7.14;-0.77;2.38
2256;0.10;-10.15;0.83;0.06;0.85;-0.24;5.73;-3.30;3.08
2265;0.19;-9.99;0.84;0.07;0.85;-0.24;4.13;-4.52;3.60
2274;0.12;-9.89;0.89;0.07;0.85;-0.24;1.46;-4.86;2.71
2282;0.16;-9.88;0.97;0.06;0.85;-0.24;-0.98;-3.64;1.36
2291;-0.04;-10.03;1.14;0.06;0.85;-0.24;-4.59;-0.52;0.95
2300;-0.00;-10.18;1.23;0.06;0.85;-0.24;-6.36;2.51;2.23
2309;0.07;-10.06;1.11;0.06;0.85;-0.24;-5.35;3.44;3.26
2318;0.15;-9.86;1.07;0.06;0.85;-0.24;-2.25;3.04;2.71
2326;0.01;-9.76;0.96;0.06;0.85;-0.24;2.33;1.75;1.43
2335;0.01;-9.75;0.84;0.06;0.85;-0.23;4.94;0.48;0.44
2344;-0.06;-9.76;0.81;0.06;0.85;-0.23;4.34;-0.12;-0.36
2352;0.03;-9.84;0.82;0.06;0.85;-0.23;1.31;-1.08;-0.67
2361;-0.08;-9.91;0.83;0.07;0.85;-0.24;-0.50;-3.21;-0.44
2370;-0.17;-9.98;1.03;0.07;0.85;-0.24;-1.30;-3.98;0.08
2379;-0.22;-9.94;1.28;0.07;0.85;-0.24;-2.27;-3.36;0.25
2387;-0.27;-9.93;1.37;0.06;0.86;-0.24;-3.75;-0.95;0.63
2396;-0.31;-9.91;1.40;0.06;0.86;-0.24;-2.30;2.07;1.07
2405;-0.20;-9.90;1.30;0.06;0.86;-0.24;-0.62;4.34;1.32
2414;-0.14;-9.84;1.07;0.07;0.85;-0.24;0.86;4.58;1.45
2422;-0.14;-9.85;1.09;0.07;0.85;-0.24;1.80;3.97;1.11
2431;-0.07;-9.85;0.98;0.07;0.85;-0.24;2.52;2.21;1.06
2440;-0.04;-9.92;0.84;0.07;0.85;-0.24;2.36;1.22;1.37
2449;-0.15;-9.98;0.91;0.07;0.85;-0.24;1.91;-0.05;1.37
2457;-0.08;-9.96;0.95;0.07;0.85;-0.24;1.65;-0.59;2.18
2466;-0.14;-9.89;1.03;0.07;0.85;-0.23;0.37;-0.35;2.58
2475;-0.08;-9.78;0.97;0.07;0.85;-0.23;-4.20;0.49;2.40
2484;0.02;-9.69;0.83;0.07;0.85;-0.23;-4.24;0.38;1.82
2492;0.03;-9.74;0.97;0.07;0.85;-0.24;-3.55;0.17;0.46
2501;0.15;-9.78;1.10;0.07;0.85;-0.24;-0.30;0.15;-0.81
2510;0.19;-9.89;1.26;0.07;0.85;-0.24;1.94;0.80;-1.87
2519;0.22;-10.17;1.33;0.07;0.86;-0.24;1.86;1.77;-2.55
2527;0.23;-10.31;1.33;0.07;0.86;-0.24;0.88;2.36;-1.88
2536;0.45;-10.30;1.21;0.07;0.86;-0.24;-0.47;1.99;-0.69
2545;0.51;-10.21;1.28;0.07;0.85;-0.24;-1.06;0.36;-0.15
2554;0.68;-10.12;1.28;0.07;0.85;-0.24;-0.14;-1.06;0.06
2562;0.89;-10.10;1.34;0.07;0.85;-0.24;0.29;-1.24;-0.25
2571;1.09;-10.30;1.42;0.07;0.86;-0.24;0.46;0.03;-0.53
2580;1.30;-10.57;1.50;0.07;0.86;-0.24;1.41;1.54;-0.06
2589;1.59;-10.79;1.51;0.07;0.86;-0.24;1.53;3.09;0.67
2597;1.94;-10.95;1.65;0.07;0.85;-0.22;-0.20;5.14;1.37
2606;2.17;-10.98;1.74;0.07;0.85;-0.22;-2.49;5.26;2.96
2615;2.33;-10.79;1.86;0.07;0.85;-0.22;-2.31;4.80;4.98
2624;2.46;-10.55;2.02;0.07;0.86;-0.25;-2.67;4.94;5.97
2632;2.53;-10.34;2.03;0.07;0.86;-0.25;-4.18;5.15;5.48
2641;2.66;-10.20;2.22;0.07;0.86;-0.24;-5.80;5.48;4.94
2650;2.58;-10.12;2.34;0.07;0.86;-0.24;-11.04;6.45;4.69
2659;2.55;-10.09;2.59;0.07;0.86;-0.24;-12.61;8.35;4.71
2668;2.50;-10.15;2.57;0.07;0.85;-0.24;-16.74;10.76;5.35
2676;2.57;-10.17;2.76;0.07;0.85;-0.24;-21.25;13.90;6.24
2685;2.54;-10.22;2.77;0.07;0.85;-0.24;-24.25;17.02;8.24
2694;2.70;-10.06;2.85;0.07;0.85;-0.25;-25.39;20.26;10.16
2703;2.86;-9.84;2.72;0.07;0.85;-0.25;-25.07;22.88;11.02
2711;2.99;-9.59;2.38;0.07;0.85;-0.25;-22.43;24.03;10.68
2720;3.07;-9.31;2.23;0.08;0.84;-0.25;-19.07;23.42;8.77
2729;3.29;-9.23;1.90;0.08;0.84;-0.25;-15.93;18.75;3.39
2738;3.60;-9.01;1.69;0.08;0.84;-0.25;-9.69;13.11;1.40
2746;3.85;-8.76;1.68;0.08;0.84;-0.26;-3.54;6.34;-5.07
2755;3.69;-8.84;2.00;0.08;0.84;-0.26;-1.44;1.44;-11.07
2764;3.86;-8.98;2.24;0.08;0.84;-0.26;-3.03;-1.41;-16.15
2773;3.89;-9.12;2.41;0.08;0.85;-0.26;-6.61;-2.71;-19.55
2781;3.85;-9.65;2.69;0.08;0.85;-0.26;-9.07;-2.35;-18.61
2790;3.77;-9.95;3.32;0.08;0.85;-0.26;-9.51;5.15;-11.61
2799;3.84;-9.77;3.67;0.07;0.85;-0.27;-14.78;13.61;-7.49
2808;4.07;-9.62;3.80;0.07;0.85;-0.27;-23.26;18.87;-8.72
2816;4.14;-9.87;4.00;0.07;0.85;-0.27;-28.66;22.14;-11.73
2825;4.40;-9.80;3.68;0.08;0.84;-0.26;-27.21;18.91;-11.52
2834;4.91;-9.56;3.47;0.08;0.84;-0.26;-18.97;10.07;-12.28
2843;5.74;-8.81;3.56;0.08;0.84;-0.26;-14.98;-4.88;-15.51
2851;5.99;-7.88;3.63;0.08;0.83;-0.27;-13.28;-23.55;-23.27
2860;5.82;-6.66;3.67;0.08;0.83;-0.27;-13.93;-41.20;-31.79
2869;4.76;-5.07;3.60;0.08;0.83;-0.27;-17.18;-49.13;-41.62
2878;1.76;-3.59;4.05;0.07;0.82;-0.28;-36.14;-41.26;-52.88
2887;-0.64;-3.04;3.65;0.07;0.82;-0.28;-47.66;-35.88;-64.59
2895;-3.67;-2.75;3.07;0.07;0.82;-0.28;-28.88;-30.37;-75.26
2904;-5.97;-3.13;2.11;0.04;0.83;-0.29;1.41;-32.35;-94.95
2913;-8.85;-4.42;1.68;0.04;0.83;-0.29;25.19;-33.85;-131.26
2922;-11.61;-6.66;1.89;0.04;0.83;-0.29;34.02;-10.37;-161.04
2930;-14.04;-9.29;1.72;0.02;0.83;-0.27;-0.43;32.87;-197.57
2939;-15.26;-13.66;0.32;0.02;0.83;-0.27;-61.21;91.36;-218.11
2948;-16.09;-19.60;-2.72;0.02;0.83;-0.27;-86.02;140.25;-208.42
2957;-15.52;-19.60;-7.35;-0.01;0.84;-0.27;-31.56;160.33;-150.87
2965;-11.78;-19.60;-12.84;-0.01;0.84;-0.27;108.87;147.38;-41.69
2974;-7.19;-19.60;-16.74;-0.01;0.84;-0.25;257.15;113.14;96.23
2983;-4.98;-14.25;-16.84;0.00;0.84;-0.25;286.68;56.98;198.66
2992;-2.47;-4.30;-14.30;0.00;0.84;-0.25;286.68;-25.63;197.46
3000;-0.76;1.59;-9.58;0.05;0.84;-0.23;154.57;-76.87;125.47
3009;-2.20;1.77;-3.92;0.05;0.84;-0.23;-23.40;-100.87;29.44
3018;-4.32;-0.26;0.51;0.05;0.84;-0.23;-140.89;-111.61;-28.81
3027;-8.22;-4.85;7.55;0.03;0.85;-0.24;-153.49;-105.05;-40.93
3035;-9.27;-9.14;9.39;0.03;0.85;-0.24;-101.30;-90.05;-33.85
3044;-9.52;-11.76;11.84;0.03;0.85;-0.24;-20.52;-59.39;-0.10
3053;-7.63;-11.05;11.34;0.02;0.85;-0.23;45.67;-24.40;33.32
3062;-5.88;-8.64;9.55;0.02;0.85;-0.23;72.48;16.42;53.84
3071;-4.89;-6.50;7.27;0.02;0.85;-0.23;73.59;35.99;52.36
3079;-3.16;-6.23;4.75;0.04;0.85;-0.23;67.99;51.75;37.76
3088;-2.22;-7.13;2.05;0.04;0.85;-0.23;63.28;58.96;13.86
3097;-1.74;-8.52;-0.63;0.04;0.85;-0.23;57.81;58.77;2.73
3106;-1.40;-10.03;-2.69;0.05;0.86;-0.22;51.22;49.91;0.65
3114;-0.47;-10.47;-3.93;0.05;0.86;-0.22;40.51;29.90;7.46
3123;0.44;-9.20;-3.22;0.05;0.86;-0.22;24.31;8.93;15.22
3132;0.12;-8.42;-1.74;0.05;0.86;-0.21;8.60;-7.75;11.52
3141;0.36;-8.46;-0.19;0.05;0.86;-0.21;-0.34;-9.88;4.70
3149;0.18;-9.11;0.98;0.05;0.86;-0.21;-3.14;-6.06;-0.86
3158;-0.03;-10.14;1.41;0.06;0.86;-0.21;-9.89;0.42;-5.07
3167;-0.12;-10.53;1.76;0.06;0.86;-0.21;-18.74;6.50;-7.38
3176;-0.04;-10.56;1.91;0.06;0.86;-0.21;-30.76;7.46;-9.18
3184;-0.16;-10.65;2.50;0.05;0.86;-0.21;-41.46;9.18;-8.94
3193;-0.57;-11.00;2.43;0.05;0.86;-0.21;-45.46;11.09;-7.42
3202;-0.98;-11.20;2.31;0.05;0.86;-0.21;-39.29;10.33;-4.77
3211;-1.16;-11.25;2.03;0.05;0.86;-0.22;-28.68;11.61;-1.94
3219;-1.03;-11.21;1.47;0.05;0.86;-0.22;-17.11;13.75;2.55
3228;-0.98;-11.44;0.79;0.05;0.86;-0.22;-6.55;16.10;5.03
3237;-1.01;-11.60;-0.03;0.05;0.86;-0.22;-2.56;19.82;8.50
3246;-0.78;-11.70;-0.68;0.05;0.86;-0.22;-2.78;15.30;8.15
3254;-0.53;-11.50;-1.03;0.05;0.86;-0.22;-6.55;8.87;7.48
3263;-0.49;-11.37;-0.91;0.05;0.85;-0.22;-11.37;3.88;7.20
3272;-0.68;-11.22;-0.41;0.05;0.85;-0.22;-13.70;0.14;8.80
3281;-0.77;-10.96;0.21;0.05;0.85;-0.22;-12.80;-2.19;11.33
3289;-1.06;-10.77;1.02;0.05;0.85;-0.23;-11.49;-0.11;13.13
3298;-1.14;-10.51;1.19;0.05;0.85;-0.23;-10.36;5.64;14.90
3307;-1.23;-10.20;1.01;0.05;0.85;-0.23;-8.78;13.19;14.46
3316;-0.92;-10.05;0.46;0.06;0.85;-0.23;-6.24;13.97;13.34
3325;-0.66;-9.96;-0.08;0.06;0.85;-0.23;-5.54;13.48;12.36
3333;-0.55;-9.86;-0.31;0.06;0.85;-0.22;-7.72;10.35;10.59
3342;-0.40;-9.80;-0.36;0.06;0.85;-0.22;-12.02;5.35;7.49
3351;-0.41;-9.71;-0.30;0.06;0.85;-0.22;-16.93;0.80;4.75
3360;-0.39;-9.61;-0.05;0.06;0.84;-0.23;-18.23;-2.96;2.97
3368;-0.53;-9.44;0.33;0.06;0.84;-0.23;-16.75;-5.78;1.24
3377;-0.63;-9.65;0.71;0.06;0.84;-0.23;-15.02;-4.80;0.72
3386;-0.87;-9.88;1.13;0.06;0.84;-0.23;-13.34;-0.60;2.71
3395;-0.88;-9.90;1.37;0.06;0.84;-0.23;-13.31;3.39;4.30
3403;-0.86;-9.80;1.11;0.06;0.84;-0.23;-12.70;7.76;6.20
3412;-0.64;-9.69;1.03;0.06;0.84;-0.24;-7.87;9.90;9.53
3421;-0.48;-9.51;0.79;0.06;0.84;-0.24;-2.89;9.78;11.90
3430;-0.41;-9.34;0.56;0.06;0.84;-0.24;0.09;7.42;11.50
3438;-0.25;-9.20;0.27;0.06;0.84;-0.23;-0.47;4.73;9.66
3447;-0.22;-9.16;0.23;0.06;0.84;-0.23;-3.39;3.15;6.51
3456;-0.14;-9.21;0.20;0.06;0.84;-0.23;-5.77;0.31;2.97
3465;-0.17;-9.32;0.57;0.07;0.84;-0.23;-6.47;-1.48;1.48
3473;-0.34;-9.39;0.65;0.07;0.84;-0.23;-4.95;-2.63;0.83
3482;-0.58;-9.53;0.94;0.07;0.84;-0.23;-3.53;-1.91;-0.46
3491;-0.63;-9.76;1.18;0.06;0.84;-0.23;-0.12;1.39;-0.05
3500;-0.59;-9.72;1.17;0.06;0.84;-0.23;-1.96;4.73;1.35
3508;-0.56;-9.52;1.09;0.06;0.84;-0.23;-2.11;7.32;2.13
3517;-0.46;-9.55;0.88;0.07;0.84;-0.23;-2.62;8.51;2.14
3526;-0.46;-9.60;0.71;0.07;0.84;-0.23;-2.27;8.86;1.69
3535;-0.43;-9.70;0.50;0.07;0.84;-0.23;-3.68;8.00;0.84
3543;-0.42;-9.87;0.27;0.06;0.84;-0.24;-5.21;6.14;-0.16
3552;-0.45;-9.98;0.20;0.06;0.84;-0.24;-4.81;2.11;1.10
3561;-0.56;-9.97;0.47;0.06;0.84;-0.24;-4.97;-3.37;1.71
3570;-0.69;-9.91;0.73;0.07;0.84;-0.24;-5.14;-5.49;0.60
3578;-0.89;-10.10;1.13;0.07;0.84;-0.24;-5.68;-4.92;0.55
3587;-1.01;-10.09;1.40;0.07;0.84;-0.24;-3.17;-4.08;1.58
3596;-1.10;-10.28;1.38;0.07;0.84;-0.23;-0.60;-0.39;3.28
3605;-1.09;-10.38;1.17;0.07;0.84;-0.23;1.77;3.24;5.89
3614;-1.03;-10.31;0.70;0.07;0.84;-0.23;3.52;5.52;10.89
3622;-1.01;-10.25;0.28;0.07;0.84;-0.23;4.83;5.64;10.36
3631;-0.88;-10.01;-0.31;0.07;0.84;-0.23;4.72;3.24;11.17
3640;-0.56;-9.45;-0.32;0.07;0.84;-0.23;1.09;-4.26;10.95
3649;-0.65;-9.11;0.29;0.08;0.83;-0.23;-4.09;-10.82;6.66
3658;-0.80;-9.35;0.80;0.08;0.83;-0.23;-8.20;-14.01;1.37
3666;-1.08;-9.70;1.11;0.08;0.84;-0.23;-11.55;-12.13;-0.60
3675;-0.94;-9.89;1.17;0.08;0.84;-0.23;-12.33;-7.67;0.37
3684;-1.62;-10.46;0.95;0.08;0.84;-0.23;-10.47;-4.28;0.27
3692;-1.42;-10.79;0.49;0.08;0.84;-0.24;-6.64;-1.40;3.14
3701;-1.43;-10.66;-0.03;0.08;0.84;-0.24;-0.91;-0.25;6.77
3710;-1.47;-10.65;-0.62;0.08;0.84;-0.24;4.90;-4.26;10.21
3719;-1.29;-10.11;-0.96;0.07;0.84;-0.22;8.93;-12.46;14.91
3728;-0.99;-9.43;-0.56;0.07;0.84;-0.22;7.87;-22.65;17.22
3736;-1.15;-8.93;0.01;0.07;0.84;-0.22;2.07;-30.27;13.51
3745;-1.12;-8.83;0.70;0.08;0.84;-0.24;-5.77;-31.20;7.51
3754;-1.31;-9.08;0.99;0.08;0.84;-0.24;-13.21;-27.61;1.03
3763;-1.30;-9.75;1.13;0.08;0.84;-0.24;-17.07;-23.29;-2.82
3771;-1.27;-10.49;1.10;0.07;0.84;-0.24;-13.82;-16.58;0.10
3780;-1.86;-10.84;1.06;0.07;0.84;-0.24;-4.71;-15.30;5.41
3789;-1.74;-10.73;1.21;0.07;0.84;-0.24;7.49;-16.50;10.57
3798;-1.99;-10.64;1.27;0.07;0.83;-0.23;20.16;-16.85;16.93
3807;-1.93;-10.26;1.10;0.07;0.83;-0.23;31.37;-20.34;21.17
3815;-1.46;-9.88;0.81;0.07;0.83;-0.23;35.60;-22.24;25.58
3824;-1.11;-9.32;0.54;0.07;0.84;-0.23;35.51;-23.56;24.79
3833;-0.68;-8.97;0.36;0.07;0.84;-0.23;32.23;-24.13;21.74
3842;-0.34;-8.75;0.19;0.07;0.84;-0.23;24.21;-23.38;15.55
3850;-0.24;-8.74;0.07;0.08;0.84;-0.24;11.75;-21.53;7.06
3859;-0.47;-9.28;0.21;0.08;0.84;-0.24;-2.66;-20.12;-2.65
3868;-0.88;-9.81;0.52;0.08;0.84;-0.24;-18.09;-16.36;-9.13
3877;-1.14;-10.43;0.72;0.07;0.84;-0.24;-35.54;-12.24;-10.95
3885;-1.45;-11.02;0.79;0.07;0.84;-0.24;-40.17;-10.77;-7.26
3894;-1.54;-11.00;0.74;0.07;0.84;-0.24;-32.67;-11.56;0.72
3903;-1.75;-10.74;0.78;0.07;0.84;-0.25;-20.35;-15.18;8.54
3912;-1.32;-10.33;0.67;0.07;0.84;-0.25;-10.01;-19.22;13.57
3920;-1.07;-9.95;0.65;0.07;0.84;-0.25;-7.49;-23.33;14.52
3929;-0.65;-9.70;0.65;0.06;0.84;-0.24;-8.64;-25.48;13.86
3938;-0.45;-9.46;0.48;0.06;0.84;-0.24;-14.26;-27.08;10.95
3947;-0.29;-9.44;0.58;0.06;0.84;-0.24;-23.02;-27.65;6.30
3955;-0.45;-9.40;0.73;0.06;0.84;-0.24;-28.13;-27.05;0.35
3964;-0.61;-9.67;0.99;0.06;0.84;-0.24;-30.97;-24.79;-5.57
3973;-0.99;-10.00;1.06;0.06;0.84;-0.24;-27.90;-20.61;-7.23
3982;-1.28;-10.33;1.03;0.06;0.85;-0.25;-19.73;-16.73;-4.32
3991;-1.20;-10.25;0.74;0.06;0.85;-0.25;-10.12;-14.14;-0.12
3999;-1.06;-10.20;0.52;0.06;0.84;-0.26;-2.75;-17.43;2.97
4008;-0.95;-10.28;0.45;0.07;0.84;-0.26;3.03;-23.65;4.94
4017;-0.80;-10.25;0.47;0.07;0.84;-0.26;9.44;-30.30;7.51
4026;-0.71;-10.09;0.69;0.07;0.84;-0.26;11.48;-35.57;8.98
4034;-0.91;-9.87;0.97;0.07;0.84;-0.26;8.31;-37.67;6.60
4043;-0.97;-9.83;1.40;0.07;0.84;-0.26;-1.33;-34.26;4.12
4052;-0.83;-9.75;1.56;0.06;0.84;-0.24;-6.77;-27.01;2.20
4061;-0.88;-9.74;1.57;0.06;0.84;-0.24;-14.21;-18.22;1.11
4069;-0.67;-9.77;1.51;0.06;0.84;-0.24;-18.93;-7.69;1.95
4078;-0.29;-9.56;1.16;0.06;0.84;-0.26;-20.94;-1.86;1.24
4087;-0.10;-9.66;1.02;0.06;0.84;-0.26;-19.55;-2.35;1.15
4096;0.03;-9.64;1.15;0.06;0.84;-0.26;-14.85;-6.89;1.28
4104;0.15;-9.65;1.19;0.05;0.84;-0.26;-7.60;-16.76;3.22
4113;0.18;-9.92;1.58;0.05;0.84;-0.26;1.13;-26.84;4.87
4122;0.16;-9.91;1.92;0.05;0.84;-0.26;8.95;-30.12;8.84
4131;0.27;-9.70;2.24;0.06;0.84;-0.25;8.12;-26.75;8.88
4139;0.25;-9.87;2.52;0.06;0.84;-0.25;0.26;-18.70;6.98
4148;0.44;-10.05;2.50;0.06;0.84;-0.25;-8.85;-7.48;4.37
4157;0.45;-10.28;2.45;0.06;0.84;-0.27;-21.39;3.00;2.88
4166;0.40;-10.38;2.21;0.06;0.84;-0.27;-24.09;6.57;5.04
4174;0.73;-10.47;1.97;0.06;0.84;-0.27;-17.15;8.36;11.16
4183;0.62;-10.01;1.60;0.06;0.85;-0.26;-11.38;6.06;11.19
4192;1.06;-9.83;1.33;0.06;0.85;-0.26;-6.51;-1.62;10.14
4201;0.97;-9.62;1.38;0.06;0.85;-0.26;-2.35;-10.05;6.99
4209;1.16;-9.69;1.35;0.06;0.85;-0.26;-1.47;-13.56;6.44
4218;1.01;-9.47;1.48;0.06;0.85;-0.26;-2.16;-16.86;3.38
4227;1.02;-9.30;1.46;0.06;0.85;-0.26;-3.58;-20.31;1.09
4236;0.73;-9.42;1.84;0.06;0.85;-0.26;-4.33;-21.57;0.01
4244;0.51;-9.54;2.19;0.06;0.85;-0.26;-7.32;-16.62;0.53
4253;0.35;-9.37;2.34;0.06;0.85;-0.26;-14.10;-7.41;-0.47
4262;0.49;-9.28;2.20;0.05;0.84;-0.26;-24.85;0.71;-3.25
4271;0.38;-9.35;1.86;0.05;0.84;-0.26;-30.40;2.37;-4.68
4279;0.46;-9.29;1.82;0.05;0.84;-0.26;-26.45;0.39;-5.82
4288;0.62;-9.23;1.92;0.05;0.85;-0.25;-20.39;-4.02;-6.71
4297;0.52;-9.33;2.08;0.05;0.85;-0.25;-14.73;-6.26;-6.74
4306;0.59;-9.34;2.19;0.05;0.85;-0.25;-14.02;-5.99;-7.94
4314;0.58;-9.31;2.12;0.05;0.84;-0.27;-15.18;-5.83;-8.83
4323;0.56;-9.31;2.25;0.05;0.84;-0.27;-13.87;-4.69;-10.06
4332;0.18;-9.34;2.32;0.05;0.84;-0.27;-10.56;-2.32;-11.00
4341;0.14;-9.36;2.39;0.06;0.84;-0.28;-7.47;3.19;-12.31
4349;0.06;-9.42;2.24;0.06;0.84;-0.28;-4.11;8.52;-14.99
4358;0.37;-9.64;1.97;0.06;0.84;-0.26;-0.15;12.66;-15.01
4367;0.61;-9.68;1.49;0.06;0.84;-0.26;3.14;12.98;-15.08
4376;0.77;-9.79;1.09;0.06;0.84;-0.26;6.76;9.88;-13.48
4384;0.94;-9.74;0.95;0.05;0.85;-0.27;10.54;3.39;-14.30
4393;0.89;-9.97;1.11;0.05;0.85;-0.27;12.51;0.10;-12.21
4402;0.90;-10.05;1.40;0.05;0.85;-0.27;14.91;-0.20;-11.58
4411;0.95;-10.15;1.55;0.05;0.84;-0.26;17.29;2.00;-9.20
4419;1.15;-10.19;1.52;0.05;0.84;-0.26;14.93;3.67;-8.45
4428;1.22;-10.46;1.76;0.05;0.84;-0.26;11.16;5.18;-6.64
4437;1.10;-10.66;1.94;0.05;0.84;-0.27;11.44;7.66;-1.54
4446;1.24;-10.55;2.00;0.05;0.84;-0.27;13.52;10.81;1.83
4454;1.34;-10.57;1.94;0.05;0.84;-0.27;15.04;12.28;3.93
4463;1.68;-10.62;1.90;0.05;0.84;-0.28;17.98;11.02;5.64
4472;1.62;-10.51;1.66;0.05;0.84;-0.28;20.26;8.20;7.39
4481;1.87;-10.56;1.36;0.05;0.84;-0.28;20.59;1.12;6.16
4489;2.07;-10.37;1.16;0.05;0.84;-0.27;19.44;-4.61;6.36
4498;2.20;-10.07;1.23;0.05;0.84;-0.27;16.85;-12.96;2.72
4507;2.21;-9.92;1.34;0.05;0.84;-0.27;9.82;-17.89;-3.65
4516;1.79;-9.86;1.96;0.05;0.85;-0.25;1.61;-20.05;-10.65
4524;1.39;-10.20;2.58;0.05;0.85;-0.25;-4.94;-17.40;-12.72
4533;1.08;-10.59;2.81;0.05;0.85;-0.25;-4.85;-10.39;-7.32
4542;0.74;-10.54;2.86;0.06;0.85;-0.25;-5.64;-3.78;-2.10
4551;0.73;-10.42;2.76;0.06;0.85;-0.25;-6.50;2.39;1.16
4559;0.49;-10.30;2.59;0.06;0.85;-0.25;-5.74;6.31;3.59
4568;0.33;-10.14;2.10;0.05;0.85;-0.26;-4.63;7.91;5.25
4577;0.20;-9.92;1.73;0.05;0.85;-0.26;-3.53;7.02;5.51
4586;-0.04;-9.76;1.39;0.05;0.85;-0.26;-3.58;3.19;4.32
4594;-0.29;-9.66;1.36;0.05;0.84;-0.26;-6.47;1.26;3.05
4603;-0.54;-9.59;1.35;0.05;0.84;-0.26;-9.70;1.21;1.83
4612;-0.82;-9.45;1.41;0.05;0.84;-0.26;-11.37;3.32;0.35
4621;-0.87;-9.44;1.29;0.05;0.84;-0.26;-9.45;5.23;-0.28
4629;-1.04;-9.49;1.26;0.05;0.84;-0.26;-3.55;8.35;-0.24
4638;-1.07;-9.57;1.13;0.05;0.84;-0.26;-0.38;9.88;-0.78
4647;-1.15;-9.66;1.06;0.06;0.84;-0.27;1.38;11.44;2.19
4656;-1.09;-9.61;0.92;0.06;0.84;-0.27;2.07;12.32;1.22
4664;-1.00;-9.52;0.74;0.06;0.84;-0.27;1.44;11.32;1.12
4673;-0.65;-9.55;0.58;0.06;0.84;-0.26;1.74;8.15;0.59
4682;-0.39;-9.59;0.42;0.06;0.84;-0.26;3.54;2.91;0.21
4691;-0.30;-9.60;0.48;0.06;0.84;-0.26;3.55;-1.84;0.00
4699;-0.12;-9.56;0.59;0.06;0.84;-0.25;0.90;-4.32;-0.17
4708;-0.05;-9.55;0.96;0.06;0.84;-0.25;-2.19;-4.59;-0.42
4717;-0.04;-9.64;1.24;0.06;0.84;-0.25;-6.53;-2.34;-0.39
4726;-0.04;-9.70;1.59;0.06;0.85;-0.25;-10.91;2.83;0.15
4734;-0.01;-9.73;1.55;0.06;0.85;-0.25;-13.19;6.21;0.56
4743;0.23;-9.77;1.39;0.06;0.83;-0.25;-11.85;7.66;0.67
4752;0.38;-9.69;1.21;0.06;0.83;-0.25;-5.74;5.52;0.61
4761;0.43;-9.65;1.25;0.06;0.83;-0.25;6.29;1.44;-1.24
4770;0.46;-9.77;1.26;0.06;0.83;-0.26;10.24;-1.29;-3.38
4778;0.45;-9.96;1.15;0.06;0.83;-0.26;10.19;-3.24;-3.92
4787;0.29;-10.03;1.20;0.06;0.83;-0.26;7.30;-4.24;-3.34
4796;0.09;-10.00;1.13;0.06;0.85;-0.25;4.09;-4.86;-2.78
4805;0.01;-9.99;1.33;0.06;0.85;-0.25;1.87;-4.34;-1.68
4813;-0.18;-9.95;1.36;0.06;0.85;-0.25;0.90;-3.03;-1.51
4822;-0.35;-9.98;1.49;0.06;0.84;-0.26;-0.17;-0.79;-1.01
4831;-0.43;-9.98;1.50;0.06;0.84;-0.26;-2.98;2.87;-0.84
4840;-0.36;-10.00;1.47;0.06;0.84;-0.26;-5.45;5.20;-0.67
4848;-0.34;-9.96;1.32;0.06;0.84;-0.25;-4.36;4.99;-0.22
4857;-0.22;-9.97;1.22;0.06;0.84;-0.25;-2.21;2.26;-0.59
4866;-0.24;-9.96;1.32;0.06;0.84;-0.25;0.80;-0.82;-0.76
4875;-0.25;-10.03;1.45;0.06;0.84;-0.26;4.17;-2.20;-0.65
4883;-0.27;-10.02;1.44;0.06;0.84;-0.26;3.86;-2.42;-0.24
4892;-0.17;-9.97;1.48;0.06;0.84;-0.26;2.36;-1.71;0.11
4901;-0.14;-9.80;1.34;0.06;0.85;-0.25;-0.60;-0.88;0.30
4910;-0.03;-9.75;1.42;0.06;0.85;-0.25;-2.90;-1.01;-0.27
4918;-0.09;-9.70;1.33;0.06;0.85;-0.25;-3.68;-0.97;-0.94
4927;-0.16;-9.79;1.38;0.06;0.84;-0.26;-3.31;-0.44;-1.37
4936;-0.25;-9.81;1.59;0.06;0.84;-0.26;-2.27;1.47;-1.24
4945;-0.25;-9.81;1.55;0.06;0.84;-0.26;-1.09;2.96;-1.19
4953;-0.21;-9.85;1.47;0.06;0.84;-0.26;0.20;3.02;-1.67
4962;-0.20;-9.95;1.44;0.06;0.84;-0.26;1.55;2.77;-1.55
4971;-0.11;-9.99;1.30;0.06;0.84;-0.26;1.92;1.62;-1.59
4980;-0.02;-10.00;1.25;0.06;0.84;-0.26;1.31;0.88;-1.49
4988;-0.03;-9.95;1.26;0.06;0.84;-0.26;-0.09;-0.11;-1.82
4997;0.07;-9.89;1.19;0.06;0.84;-0.26;-1.14;-0.68;-2.16
5006;0.08;-9.83;1.19;0.06;0.84;-0.26;-2.62;-2.25;-2.87
5015;0.02;-9.90;1.27;0.06;0.84;-0.26;-3.83;-3.18;-3.46
5023;-0.11;-10.01;1.40;0.06;0.84;-0.26;-4.19;-3.00;-3.46
5032;-0.19;-10.24;1.51;0.05;0.85;-0.26;-3.47;-1.02;-2.82
5041;-0.17;-10.19;1.56;0.05;0.85;-0.26;-1.71;1.18;-1.56
5050;0.02;-10.21;1.60;0.05;0.85;-0.26;-0.24;2.69;-0.88
5058;0.15;-10.18;1.38;0.06;0.85;-0.25;0.43;3.45;0.16
5067;0.40;-10.22;1.39;0.06;0.85;-0.25;-0.11;3.92;0.53
5076;0.54;-10.22;1.38;0.06;0.84;-0.25;-0.21;3.33;0.94
5085;0.58;-10.25;1.38;0.06;0.84;-0.25;-0.39;2.56;1.22
5093;0.69;-10.21;1.39;0.06;0.84;-0.25;0.51;2.34;1.25
5102;0.62;-10.24;1.38;0.06;0.85;-0.26;0.52;2.48;0.82
5111;0.62;-10.26;1.34;0.06;0.85;-0.26;1.11;2.08;0.81
5120;0.61;-10.28;1.32;0.06;0.85;-0.26;0.76;2.74;0.73
5128;0.69;-10.33;1.33;0.05;0.84;-0.25;0.20;2.68;1.13
5137;0.73;-10.42;1.52;0.05;0.84;-0.25;-1.69;2.42;1.61
5146;0.90;-10.42;1.64;0.05;0.84;-0.25;-3.70;1.79;2.48
5155;1.09;-10.34;1.81;0.07;0.85;-0.26;-5.12;1.32;3.48
5163;1.10;-10.25;1.99;0.07;0.85;-0.26;-5.72;1.50;4.40
5172;1.23;-10.16;2.26;0.07;0.85;-0.26;-4.26;2.87;4.16
5181;1.25;-10.12;2.27;0.05;0.85;-0.26;-1.86;4.18;4.21
5190;1.26;-10.06;2.28;0.05;0.85;-0.26;1.09;5.74;4.88
5198;1.32;-10.00;2.22;0.05;0.85;-0.26;4.93;8.81;5.76
5207;1.32;-9.80;2.04;0.05;0.84;-0.25;8.27;10.84;5.87
5216;1.42;-9.73;1.80;0.05;0.84;-0.25;10.82;11.81;4.90
5225;1.49;-9.75;1.64;0.05;0.84;-0.25;12.89;12.00;3.75
5234;1.56;-9.78;1.43;0.06;0.85;-0.25;13.85;11.30;2.98
5242;1.84;-9.89;1.26;0.06;0.85;-0.25;11.47;10.86;2.49
5251;1.68;-10.16;1.24;0.06;0.85;-0.25;7.98;10.53;3.05
5260;1.71;-10.32;1.18;0.06;0.85;-0.25;3.68;10.78;5.14
5269;1.81;-10.33;1.28;0.06;0.85;-0.25;-0.70;11.60;7.66
5277;2.03;-10.41;1.38;0.06;0.85;-0.25;-6.71;13.62;10.19
5286;1.94;-10.40;1.58;0.06;0.85;-0.25;-15.31;15.90;13.24
5295;2.16;-10.34;1.68;0.06;0.85;-0.25;-20.18;17.75;16.68
5304;2.49;-10.12;1.73;0.06;0.85;-0.25;-23.26;17.75;18.86
5312;2.73;-9.96;1.88;0.08;0.84;-0.26;-26.53;17.08;18.73
5321;3.20;-9.52;2.07;0.08;0.84;-0.26;-26.70;16.13;18.92
5330;3.46;-9.18;2.01;0.08;0.84;-0.26;-23.97;15.48;18.27
5339;3.67;-8.76;2.00;0.07;0.84;-0.26;-20.12;13.26;16.11
5348;3.46;-8.16;2.08;0.07;0.84;-0.26;-20.65;10.55;11.18
5356;3.64;-8.34;2.22;0.07;0.84;-0.26;-19.69;13.39;1.52
5365;3.15;-8.98;2.14;0.08;0.84;-0.26;-19.79;14.30;-1.99
5374;3.24;-9.60;2.14;0.08;0.84;-0.26;-15.02;18.94;-2.16
5383;3.43;-10.18;1.97;0.08;0.84;-0.26;-10.13;22.30;-0.66
5391;3.67;-10.56;1.66;0.08;0.83;-0.26;-6.15;19.69;0.16
5400;3.92;-11.21;1.74;0.08;0.83;-0.26;-0.22;14.16;1.05
5409;4.92;-12.00;2.24;0.08;0.83;-0.26;0.94;5.36;2.64
5418;5.74;-12.43;3.10;0.08;0.83;-0.26;-0.67;-5.83;4.15
5426;6.21;-12.26;3.98;0.08;0.83;-0.26;-8.27;-12.27;11.86
5435;6.77;-11.65;4.94;0.09;0.83;-0.26;-31.19;-21.45;15.74
5444;6.33;-10.22;5.68;0.09;0.83;-0.26;-52.93;-24.15;16.57
5453;5.95;-8.39;6.41;0.09;0.83;-0.26;-71.23;-25.10;10.86
5461;5.50;-6.95;6.72;0.08;0.81;-0.27;-90.36;-25.51;-5.38
5470;4.97;-5.63;6.55;0.08;0.81;-0.27;-114.26;-29.97;-24.66
5479;3.22;-4.52;6.16;0.08;0.81;-0.27;-130.15;-29.98;-42.59
5488;0.82;-3.46;5.31;0.07;0.80;-0.29;-131.13;-36.60;-61.37
5497;-1.72;-3.13;4.45;0.07;0.80;-0.29;-112.94;-50.15;-84.13
5505;-4.37;-3.46;3.64;0.07;0.80;-0.29;-75.00;-67.99;-100.12
5514;-7.70;-4.22;2.96;0.04;0.80;-0.33;-11.58;-77.35;-106.71
5523;-10.69;-6.14;3.17;0.04;0.80;-0.33;58.10;-74.60;-110.38
5532;-12.02;-8.28;4.29;0.04;0.80;-0.33;90.04;-37.34;-114.05
5540;-12.59;-11.18;4.96;0.02;0.81;-0.30;63.54;21.49;-119.88
5549;-12.95;-13.42;3.48;0.02;0.81;-0.30;16.96;92.10;-114.14
5558;-13.94;-16.60;-0.20;0.02;0.81;-0.30;17.69;150.13;-97.46
5567;-12.85;-19.60;-5.67;0.01;0.82;-0.32;72.76;181.79;-57.42
5575;-10.34;-19.60;-12.60;0.01;0.82;-0.32;186.48;189.29;10.57
5584;-6.46;-19.60;-19.53;0.01;0.82;-0.32;276.14;156.13;102.77
5593;-2.22;-13.20;-19.60;0.05;0.82;-0.26;286.68;96.06;174.09
5602;1.22;-5.27;-19.60;0.05;0.82;-0.26;249.46;11.66;167.92
5610;1.00;-0.95;-16.16;0.05;0.82;-0.26;97.33;-96.64;90.47
5619;-1.94;-1.25;-7.95;0.09;0.83;-0.22;-47.20;-155.93;6.28
5628;-5.21;-3.14;-0.62;0.09;0.83;-0.22;-141.41;-183.99;-45.30
5637;-8.52;-5.65;6.97;0.09;0.83;-0.22;-172.69;-180.49;-49.75
5646;-9.72;-9.25;12.14;0.05;0.83;-0.25;-156.03;-146.86;-35.06
5654;-9.09;-10.64;16.06;0.05;0.83;-0.25;-92.00;-92.29;-5.03
5663;-7.61;-10.92;15.20;0.05;0.83;-0.25;-27.03;-25.64;13.34
5672;-5.61;-10.01;12.13;0.04;0.83;-0.27;21.91;21.29;32.55
5681;-4.06;-8.56;8.40;0.04;0.83;-0.27;41.19;42.93;38.77
5690;-2.20;-7.30;5.87;0.04;0.83;-0.27;48.87;50.68;34.99
5698;-1.32;-7.07;3.70;0.04;0.82;-0.26;46.13;53.14;23.28
5707;-0.70;-7.58;2.11;0.04;0.82;-0.26;37.37;49.55;10.38
5716;0.06;-8.37;0.90;0.04;0.82;-0.26;26.84;43.65;0.61
5724;0.59;-9.25;0.31;0.07;0.83;-0.26;15.20;38.24;-3.89
5733;0.80;-10.03;-0.11;0.07;0.83;-0.26;6.09;27.62;-4.27
5742;0.93;-10.46;-0.23;0.07;0.83;-0.25;-0.52;16.00;-0.06
5751;1.05;-10.30;0.42;0.06;0.82;-0.25;-1.86;5.89;5.59
5759;0.99;-9.62;1.28;0.06;0.82;-0.25;-2.24;1.60;8.19
5768;0.96;-9.10;1.88;0.07;0.83;-0.25;-5.01;1.83;7.14
5777;0.87;-8.64;2.19;0.07;0.83;-0.25;-7.29;4.66;3.58
5786;1.00;-8.72;2.54;0.07;0.83;-0.25;-9.47;9.16;-2.23
5794;0.90;-9.24;2.48;0.07;0.83;-0.26;-9.53;14.14;-7.06
5803;0.60;-9.93;2.29;0.07;0.83;-0.26;-8.98;16.45;-12.26
5812;0.45;-10.56;2.23;0.07;0.83;-0.26;-11.74;19.93;-11.38
5821;0.32;-10.76;2.02;0.07;0.83;-0.26;-14.32;22.06;-6.24
5830;0.13;-10.58;1.76;0.07;0.83;-0.26;-12.17;20.84;-2.56
5838;0.10;-10.59;1.22;0.07;0.83;-0.26;-8.05;19.10;1.37
5847;0.01;-10.58;0.99;0.06;0.82;-0.25;-1.53;17.21;6.04
5856;-0.14;-10.46;0.74;0.06;0.82;-0.25;7.38;15.94;9.86
5865;-0.09;-10.39;0.40;0.06;0.82;-0.25;12.40;16.35;10.81
5873;0.02;-10.57;0.33;0.07;0.82;-0.25;12.84;15.39;13.69
5882;0.10;-10.23;0.13;0.07;0.82;-0.25;11.23;11.08;11.65
5891;0.26;-9.93;0.07;0.07;0.82;-0.25;7.14;11.44;10.57
5900;0.14;-9.76;0.27;0.07;0.82;-0.26;2.56;10.82;8.75
5908;-0.01;-9.75;0.52;0.07;0.82;-0.26;-2.17;11.65;7.06
5917;0.02;-9.71;0.41;0.07;0.82;-0.26;-2.46;8.95;3.18
5926;0.05;-9.78;0.47;0.08;0.82;-0.26;0.17;9.01;4.03
5935;0.10;-9.90;0.47;0.08;0.82;-0.26;0.59;6.86;5.96
5943;0.06;-9.60;0.85;0.08;0.82;-0.26;0.54;3.96;7.45
5952;0.10;-9.21;1.24;0.07;0.82;-0.26;-1.22;0.65;5.04
5961;0.05;-9.07;1.56;0.07;0.82;-0.26;-3.65;0.74;1.79
5969;-0.02;-9.27;1.56;0.07;0.82;-0.26;-6.46;2.23;-2.14
5978;0.03;-9.61;1.34;0.08;0.82;-0.26;-8.61;3.21;-5.10
5987;0.01;-10.04;1.07;0.08;0.82;-0.26;-7.90;3.63;-5.96
5996;0.08;-10.18;0.94;0.08;0.82;-0.26;-7.08;0.50;-4.34
6004;0.19;-10.03;1.11;0.09;0.83;-0.26;-5.21;-2.02;-2.88
6013;0.03;-9.87;1.41;0.09;0.83;-0.26;-4.17;-2.90;-2.49
6022;0.06;-9.88;1.68;0.09;0.83;-0.26;-4.68;-2.51;-3.25
6031;-0.09;-10.10;1.73;0.07;0.82;-0.25;-5.99;-1.43;-3.32
6039;-0.20;-10.12;1.86;0.07;0.82;-0.25;-3.55;-0.24;-1.36
6048;-0.14;-10.06;1.74;0.07;0.82;-0.25;1.14;1.71;0.35
6057;-0.12;-9.98;1.64;0.08;0.83;-0.25;6.44;3.23;2.49
6066;-0.09;-9.70;1.54;0.08;0.83;-0.25;9.14;3.00;3.67
6075;0.12;-9.47;1.52;0.08;0.83;-0.25;8.77;1.98;2.84
6083;0.34;-9.34;1.50;0.08;0.82;-0.25;7.37;3.93;0.94
6092;0.36;-9.43;1.28;0.08;0.82;-0.25;2.99;5.28;-3.14
6101;0.33;-9.75;1.12;0.08;0.82;-0.24;-2.47;4.66;-6.20
6110;0.25;-10.04;0.97;0.08;0.83;-0.24;-6.00;3.87;-6.92
6118;0.05;-10.34;1.06;0.08;0.83;-0.24;-6.21;2.23;-5.36
6127;-0.15;-10.25;1.25;0.07;0.82;-0.26;-5.10;1.15;-2.19
6136;-0.17;-10.10;1.43;0.07;0.82;-0.26;-4.47;1.01;0.16
6145;-0.20;-9.84;1.58;0.07;0.82;-0.26;-2.27;1.68;1.31
6153;-0.09;-9.59;1.65;0.08;0.83;-0.25;0.07;3.70;1.56
6162;-0.01;-9.53;1.40;0.08;0.83;-0.25;0.04;5.67;0.40
6171;0.11;-9.74;1.04;0.08;0.83;-0.25;-2.31;5.66;-1.27
6180;0.18;-9.97;0.76;0.08;0.82;-0.25;-3.33;3.66;-1.78
6188;0.24;-10.10;0.63;0.08;0.82;-0.25;-2.41;0.15;-1.20
6197;-0.12;-10.24;0.73;0.08;0.82;-0.25;-2.10;-2.28;2.07
6206;-0.07;-10.22;0.76;0.07;0.82;-0.25;-1.76;-6.65;1.69
6215;-0.18;-10.17;0.96;0.07;0.82;-0.25;-1.63;-5.78;3.66
6223;-0.20;-10.01;1.10;0.07;0.82;-0.25;-0.11;-5.93;5.72
6232;-0.16;-9.72;1.21;0.09;0.82;-0.26;2.39;-6.97;7.13
6241;-0.14;-9.58;1.37;0.09;0.82;-0.26;3.61;-7.15;6.92
6250;-0.11;-9.57;1.37;0.09;0.82;-0.26;2.57;-6.29;5.48
6258;-0.13;-9.77;1.21;0.08;0.82;-0.26;-0.59;-4.60;3.88
6267;-0.24;-9.97;1.04;0.08;0.82;-0.26;-3.09;-3.69;3.10
6276;-0.20;-10.29;0.65;0.08;0.82;-0.26;-4.87;-3.54;4.69
6285;-0.53;-10.55;0.26;0.08;0.82;-0.27;-4.54;-5.64;5.85
6293;-0.35;-10.74;-0.08;0.08;0.82;-0.27;-3.52;-9.34;7.94
6302;-0.57;-10.85;-0.37;0.08;0.82;-0.27;-0.79;-15.09;11.71
6311;-0.72;-10.91;-0.45;0.09;0.81;-0.26;3.70;-24.09;16.73
6320;-0.92;-10.78;-0.34;0.09;0.81;-0.26;10.38;-30.81;22.17
6328;-0.95;-10.57;0.14;0.09;0.81;-0.26;17.11;-35.96;27.24
6337;0.01;-10.04;0.49;0.09;0.82;-0.25;18.87;-33.63;33.35
6346;-1.74;-10.19;0.33;0.09;0.82;-0.25;18.27;-39.03;31.26
6355;-1.22;-10.35;0.82;0.09;0.82;-0.25;16.65;-46.17;30.58
6363;-1.41;-10.40;1.03;0.08;0.82;-0.26;15.17;-46.69;31.05
6372;-1.43;-10.45;1.16;0.08;0.82;-0.26;14.16;-46.35;33.42
6381;-1.43;-10.38;1.29;0.08;0.82;-0.26;13.63;-44.63;37.66
6390;-1.40;-10.19;1.33;0.08;0.82;-0.25;13.89;-41.24;41.47
6398;-1.41;-9.91;1.34;0.08;0.82;-0.25;14.94;-38.42;44.01
6407;-1.45;-9.61;1.43;0.08;0.82;-0.25;15.85;-35.31;45.94
6416;-1.27;-9.09;1.39;0.09;0.82;-0.26;17.25;-30.97;47.04
6425;-1.03;-8.63;1.11;0.09;0.82;-0.26;17.58;-27.09;44.69
6433;-0.68;-8.04;0.71;0.09;0.82;-0.26;14.39;-26.69;38.60
6442;-0.19;-7.54;0.48;0.10;0.82;-0.26;7.35;-25.86;29.59
6451;0.13;-7.39;0.32;0.10;0.82;-0.26;-4.23;-23.19;16.47
6460;0.22;-7.70;0.18;0.10;0.81;-0.25;-16.95;-20.54;3.83
6468;0.01;-8.19;0.11;0.10;0.81;-0.25;-30.78;-18.67;-5.92
6477;-0.23;-8.74;0.06;0.10;0.81;-0.25;-40.43;-18.93;-12.65
6486;-0.48;-9.38;0.12;0.09;0.82;-0.26;-45.92;-21.40;-15.00
6495;-1.06;-9.60;0.30;0.09;0.82;-0.26;-48.24;-26.93;-12.16
6503;-0.84;-9.81;0.69;0.09;0.82;-0.26;-46.26;-32.45;-8.30
6512;-0.99;-9.78;1.33;0.09;0.81;-0.27;-41.33;-36.27;-6.05
6521;-1.13;-9.89;1.77;0.09;0.81;-0.27;-36.72;-36.55;-3.64
6530;-1.10;-9.88;2.11;0.09;0.81;-0.27;-30.79;-32.97;-1.66
6539;-0.95;-9.87;2.14;0.08;0.81;-0.28;-25.09;-27.76;-2.56
6547;-0.84;-9.65;1.98;0.08;0.81;-0.28;-23.07;-23.96;-7.37
6556;-0.59;-9.86;1.87;0.08;0.81;-0.28;-25.69;-20.12;-12.04
6565;-0.62;-9.78;1.84;0.08;0.81;-0.29;-26.28;-16.93;-14.16
6574;-0.88;-9.63;2.05;0.08;0.81;-0.29;-24.40;-13.67;-15.86
6582;-0.81;-9.66;2.17;0.08;0.81;-0.29;-22.83;-8.84;-14.52
6591;-1.00;-9.37;1.93;0.08;0.81;-0.29;-18.54;-15.22;-13.26
6600;-0.57;-9.43;1.80;0.08;0.81;-0.29;-11.71;-18.53;-11.20
6609;-0.36;-9.32;1.94;0.08;0.81;-0.29;-11.19;-24.10;-8.07
6617;-0.23;-9.34;2.29;0.07;0.82;-0.29;-6.95;-28.13;-9.55
6626;0.01;-9.42;2.51;0.07;0.82;-0.29;-5.85;-25.18;-8.01
6635;-0.14;-9.73;2.95;0.07;0.82;-0.29;-7.19;-18.68;-12.10
6644;-0.04;-10.15;3.27;0.07;0.82;-0.29;-11.01;-10.30;-16.65
6653;-0.20;-10.88;3.39;0.07;0.82;-0.29;-13.50;-1.88;-18.11
6661;-0.46;-11.59;3.44;0.07;0.82;-0.29;-10.24;5.21;-11.28
6670;-0.22;-11.50;3.24;0.06;0.83;-0.29;3.81;6.31;-5.56
6679;-0.12;-11.46;2.92;0.06;0.83;-0.29;22.17;3.16;2.03
6688;-0.01;-11.18;2.54;0.06;0.83;-0.29;39.51;-2.37;5.09
6696;0.28;-11.01;2.57;0.07;0.82;-0.28;50.97;-7.28;5.53
6705;0.27;-10.88;2.59;0.07;0.82;-0.28;52.54;-9.00;4.14
6714;0.53;-10.86;2.86;0.07;0.82;-0.28;44.86;-6.55;2.95
6723;0.80;-10.67;2.98;0.06;0.84;-0.27;29.62;0.68;-0.39
6731;0.91;-10.55;2.99;0.06;0.84;-0.27;11.30;10.24;-4.98
6740;0.97;-10.72;2.78;0.06;0.84;-0.27;-3.46;20.07;-6.55
6749;1.01;-10.61;2.66;0.06;0.84;-0.27;-7.86;28.71;-4.56
6758;0.84;-10.25;2.29;0.06;0.84;-0.27;-6.52;35.14;-1.19
6767;0.99;-9.61;1.55;0.06;0.84;-0.27;-1.33;32.16;-1.47
6775;1.32;-9.43;1.15;0.07;0.84;-0.26;6.23;23.02;-1.64
6784;1.09;-9.34;1.16;0.07;0.84;-0.26;16.46;11.96;-0.24
6793;1.12;-9.25;1.33;0.08;0.84;-0.26;27.86;4.09;3.92
6802;0.82;-8.88;1.54;0.08;0.84;-0.26;32.66;1.88;5.97
6810;0.95;-8.38;1.49;0.08;0.84;-0.26;29.14;3.59;4.65
6819;0.80;-8.19;1.62;0.08;0.84;-0.25;19.97;8.95;2.15
6828;0.91;-7.99;1.56;0.08;0.84;-0.25;7.39;15.71;-2.80
6837;1.29;-8.06;1.47;0.08;0.84;-0.25;-8.91;23.59;-7.54
6846;1.37;-8.17;1.28;0.07;0.83;-0.25;-20.83;27.20;-11.68
6854;1.57;-8.17;1.15;0.07;0.83;-0.25;-23.21;26.77;-15.07
6863;1.37;-8.43;1.15;0.07;0.83;-0.25;-20.03;20.80;-16.98
6872;1.58;-8.55;1.27;0.08;0.83;-0.25;-8.07;15.36;-16.53
6881;1.44;-8.80;1.64;0.08;0.83;-0.25;3.88;11.01;-14.56
6889;1.60;-8.77;1.83;0.08;0.83;-0.25;13.39;9.98;-11.65
6898;1.85;-8.81;1.73;0.08;0.83;-0.25;15.35;9.66;-11.05
6907;1.94;-8.92;1.55;0.08;0.83;-0.25;17.47;8.52;-10.38
6916;2.17;-9.31;1.63;0.08;0.83;-0.25;22.10;7.53;-9.95
6924;2.30;-9.36;1.84;0.08;0.83;-0.25;22.09;8.89;-10.00
6933;2.56;-9.51;1.84;0.08;0.83;-0.25;18.12;12.66;-11.94
6942;2.67;-9.62;2.00;0.08;0.83;-0.25;15.47;17.74;-13.45
6951;2.97;-9.93;1.82;0.07;0.83;-0.25;13.86;20.90;-13.30
6959;3.15;-9.90;1.86;0.07;0.83;-0.25;11.67;24.33;-9.98
6968;3.18;-10.01;1.85;0.07;0.83;-0.25;13.98;27.38;-4.92
6977;3.19;-9.86;1.97;0.08;0.84;-0.24;20.61;32.79;2.11
6986;3.07;-9.55;1.80;0.08;0.84;-0.24;23.93;37.97;5.07
6995;3.25;-9.44;1.28;0.08;0.84;-0.24;25.12;38.60;2.94
7003;3.29;-9.70;0.91;0.08;0.83;-0.24;25.35;33.87;2.28
7012;3.66;-9.79;0.49;0.08;0.83;-0.24;28.74;30.01;2.63
7021;3.66;-9.66;0.38;0.08;0.83;-0.24;27.24;24.21;2.29
7030;3.30;-9.72;0.43;0.09;0.84;-0.23;20.96;17.18;-2.56
7038;3.13;-9.78;0.56;0.09;0.84;-0.23;14.68;12.39;-5.58
7047;2.74;-9.89;0.92;0.09;0.84;-0.23;7.18;10.84;-9.41
7056;2.36;-10.04;1.09;0.09;0.84;-0.22;4.16;11.15;-13.21
7065;1.95;-10.26;0.99;0.09;0.84;-0.22;3.80;10.74;-17.47
7073;1.46;-10.66;1.10;0.09;0.84;-0.22;5.43;11.09;-19.91
7082;1.00;-10.87;1.00;0.09;0.84;-0.23;9.86;9.77;-20.92
7091;0.65;-11.20;0.86;0.09;0.84;-0.23;15.78;6.87;-21.16
7100;0.18;-11.41;0.65;0.09;0.84;-0.23;22.50;2.84;-19.16
7108;-0.14;-11.54;0.47;0.09;0.85;-0.23;28.57;-1.72;-16.76
7117;-0.28;-11.57;0.17;0.09;0.85;-0.23;30.29;-5.59;-14.75
7126;-0.51;-11.68;0.15;0.08;0.85;-0.22;25.59;-7.92;-12.36
7135;-0.80;-11.74;0.31;0.08;0.85;-0.22;17.78;-6.55;-6.82
7144;-1.09;-11.58;0.49;0.08;0.85;-0.22;2.54;-1.19;-1.74
7152;-0.96;-11.47;0.50;0.08;0.85;-0.23;-11.75;4.63;3.75
7161;-0.69;-10.94;0.32;0.08;0.85;-0.23;-19.56;8.70;10.81
7170;-0.30;-10.56;0.40;0.08;0.85;-0.23;-23.23;12.27;12.66
7179;-0.25;-10.10;0.32;0.09;0.85;-0.21;-26.78;14.32;13.24
7187;-0.02;-9.73;0.15;0.09;0.85;-0.21;-25.51;12.69;12.05
7196;0.21;-9.53;0.12;0.09;0.85;-0.21;-20.28;9.01;9.49
7205;0.46;-9.47;0.15;0.08;0.84;-0.22;-12.72;4.29;6.37
7214;0.66;-9.53;0.17;0.08;0.84;-0.22;-5.10;-1.72;3.44
7222;0.75;-9.58;0.24;0.08;0.84;-0.22;-0.56;-7.09;0.70
7231;0.82;-9.70;0.43;0.09;0.84;-0.23;-1.02;-10.87;-0.64
7240;0.67;-9.82;0.76;0.09;0.84;-0.23;-4.30;-12.82;-1.49
7249;1.95;-10.89;0.83;0.09;0.84;-0.23;-3.64;-9.17;-4.22
7257;0.06;-10.51;1.45;0.08;0.85;-0.22;5.13;-4.53;3.95
7266;0.29;-10.04;1.38;0.08;0.85;-0.22;1.94;4.40;6.73
7275;-0.01;-10.11;1.11;0.08;0.85;-0.22;-5.01;7.86;5.51
7284;0.08;-10.27;0.91;0.09;0.85;-0.23;-2.84;9.56;6.29
7292;0.31;-10.21;0.76;0.09;0.85;-0.23;-1.01;7.60;8.02
7301;0.40;-10.16;0.67;0.09;0.85;-0.23;0.07;3.96;8.38
7310;0.52;-10.04;0.75;0.09;0.84;-0.22;-0.56;0.58;9.22
7319;0.34;-9.75;0.76;0.09;0.84;-0.22;-0.19;-1.83;8.95
7327;0.42;-9.46;0.69;0.09;0.84;-0.22;1.64;-3.05;7.93
7336;0.42;-9.19;0.54;0.08;0.84;-0.23;2.60;-4.33;5.53
7345;0.28;-9.21;0.70;0.08;0.84;-0.23;2.43;-4.97;3.16
7354;0.05;-9.30;0.82;0.08;0.84;-0.23;0.78;-2.30;2.27
7362;-0.01;-9.32;0.93;0.09;0.84;-0.23;-2.34;2.81;1.92
7371;0.11;-9.39;0.80;0.09;0.84;-0.23;-5.67;6.34;0.72
7380;0.30;-9.41;0.56;0.09;0.84;-0.23;-5.05;6.89;-0.11
7388;0.49;-9.42;0.56;0.09;0.84;-0.23;-3.02;5.47;-0.99
7397;0.58;-9.41;0.54;0.09;0.84;-0.23;-0.55;2.84;-2.27
7406;0.61;-9.60;0.54;0.09;0.84;-0.23;1.34;0.25;-3.51
7415;0.55;-9.78;0.57;0.10;0.84;-0.23;3.07;-2.47;-4.41
7424;0.53;-9.84;0.53;0.10;0.84;-0.23;4.00;-5.14;-4.91
7432;0.48;-9.91;0.56;0.10;0.84;-0.23;2.96;-6.69;-5.23
7441;0.53;-10.00;0.75;0.09;0.85;-0.23;1.12;-7.18;-4.85
7450;0.39;-10.06;0.87;0.09;0.85;-0.23;0.36;-6.51;-4.34
7459;0.39;-10.08;0.99;0.09;0.85;-0.22;-0.66;-3.75;-3.49
7468;0.33;-10.13;0.93;0.09;0.84;-0.22;-1.98;-0.39;-2.58
7476;0.39;-10.11;1.00;0.09;0.84;-0.22;-1.63;2.28;-1.71
7485;0.45;-10.07;0.66;0.09;0.84;-0.24;-0.74;3.22;-0.72
7494;0.54;-10.07;0.66;0.09;0.84;-0.24;0.75;1.64;-0.06
7503;0.46;-9.99;0.52;0.09;0.84;-0.24;3.18;-0.10;0.23
7511;0.46;-10.02;0.49;0.09;0.84;-0.23;3.11;-1.76;-0.60
7520;0.37;-10.12;0.42;0.09;0.84;-0.23;1.45;-3.31;-1.39
7529;0.44;-10.15;0.49;0.09;0.84;-0.23;0.27;-4.07;-1.29
7538;0.47;-10.06;0.40;0.09;0.84;-0.22;-1.21;-5.17;-1.08
7546;0.47;-10.00;0.42;0.09;0.84;-0.22;-2.86;-6.63;-1.60
7555;0.56;-9.96;0.49;0.09;0.84;-0.22;-2.73;-7.68;-1.78
7564;0.58;-9.97;0.63;0.09;0.85;-0.23;-2.13;-7.59;-2.24
7573;0.51;-10.06;0.82;0.09;0.85;-0.23;-2.03;-5.55;-2.31
7581;0.58;-10.17;0.97;0.09;0.85;-0.23;-2.45;-2.56;-1.73
7590;0.57;-10.17;0.91;0.09;0.85;-0.23;-2.19;1.75;-0.16
7599;0.72;-10.13;0.74;0.09;0.85;-0.23;-1.81;3.26;0.21
7608;0.92;-9.98;0.39;0.09;0.85;-0.23;-1.06;2.00;0.00
7617;0.92;-10.09;0.20;0.09;0.85;-0.23;-0.22;-0.81;0.14
7625;0.76;-10.06;0.19;0.09;0.85;-0.23;-0.54;-5.78;-0.63
7634;0.80;-10.09;0.35;0.09;0.85;-0.23;-2.96;-8.41;-1.69
7643;0.70;-10.21;0.62;0.09;0.84;-0.22;-3.93;-9.44;-2.00
7652;0.68;-10.42;0.90;0.09;0.84;-0.22;-3.14;-9.63;-1.49
7660;0.75;-10.50;1.07;0.09;0.84;-0.22;-2.13;-8.71;-0.56
7669;0.76;-10.68;1.44;0.09;0.85;-0.22;-2.69;-6.44;0.32
7678;0.83;-10.70;1.55;0.09;0.85;-0.22;-5.48;-3.19;1.31
7687;1.11;-10.62;1.49;0.09;0.85;-0.22;-8.74;-0.08;2.83
7695;1.35;-10.43;1.35;0.09;0.84;-0.23;-10.31;1.86;3.37
7704;1.55;-10.33;1.29;0.09;0.84;-0.23;-10.78;2.61;3.42
7713;1.65;-10.22;1.11;0.09;0.84;-0.23;-10.65;2.18;3.23
7722;1.80;-10.11;0.91;0.09;0.84;-0.22;-10.68;0.90;2.81
7730;1.81;-9.94;0.90;0.09;0.84;-0.22;-11.35;-0.88;1.39
7739;1.79;-9.89;0.89;0.09;0.84;-0.22;-11.71;-3.62;-0.19
7748;1.62;-9.88;1.01;0.09;0.84;-0.23;-10.12;-5.63;-0.78
7757;1.58;-9.72;0.79;0.09;0.84;-0.23;-8.77;-6.76;-0.92
7765;1.66;-9.64;0.80;0.09;0.84;-0.23;-9.64;-7.32;-1.67
7774;1.64;-9.66;0.85;0.09;0.84;-0.23;-10.14;-6.42;-2.64
7783;1.83;-9.77;0.96;0.09;0.84;-0.23;-10.40;-4.32;-2.70
7792;1.84;-9.84;0.96;0.09;0.84;-0.23;-10.22;-2.15;-2.70
7800;2.26;-9.95;0.89;0.09;0.84;-0.23;-6.75;-1.01;-1.94
7809;2.43;-10.07;1.00;0.09;0.84;-0.23;-1.31;-1.38;-1.23
7818;2.55;-10.03;1.03;0.09;0.84;-0.23;4.75;-2.98;-0.91
7827;2.49;-9.89;0.83;0.09;0.84;-0.23;8.04;-4.71;-1.64
7835;2.57;-9.76;0.64;0.09;0.84;-0.23;10.01;-7.63;-3.61
7844;2.74;-9.59;0.37;0.08;0.84;-0.24;10.07;-11.28;-7.11
7853;2.66;-9.44;0.28;0.08;0.84;-0.24;10.85;-16.19;-11.02
7862;2.43;-9.73;0.54;0.08;0.84;-0.24;13.60;-20.00;-12.61
7871;2.07;-10.07;1.16;0.08;0.85;-0.23;17.33;-18.18;-9.90
7879;1.90;-10.33;1.43;0.08;0.85;-0.23;18.44;-12.22;-5.46
7888;1.98;-10.61;1.41;0.08;0.85;-0.23;14.64;-4.24;-0.47
7897;2.08;-10.78;1.11;0.08;0.85;-0.23;8.53;1.85;6.18
7906;2.17;-10.75;0.82;0.08;0.85;-0.23;1.27;3.99;11.02
7914;2.21;-10.52;0.69;0.08;0.85;-0.23;-7.31;1.30;15.04
7923;2.54;-10.34;0.76;0.07;0.86;-0.23;-13.10;-2.55;17.95
7932;2.55;-9.81;0.96;0.07;0.86;-0.23;-19.10;-6.95;18.15
7941;2.66;-9.45;1.10;0.07;0.86;-0.23;-26.31;-10.89;15.10
7949;2.38;-9.27;1.24;0.08;0.85;-0.23;-35.42;-12.44;9.33
7958;1.76;-9.89;1.78;0.08;0.85;-0.23;-41.57;-12.38;4.18
7967;1.33;-10.18;2.26;0.08;0.85;-0.23;-41.37;-6.23;4.99
7976;0.56;-10.24;2.34;0.08;0.84;-0.24;-33.47;2.71;7.94
7984;0.39;-10.16;2.03;0.08;0.84;-0.24;-19.63;7.92;11.81
7993;0.70;-10.02;1.33;0.08;0.84;-0.24;-7.72;9.41;13.94
8002;0.94;-9.81;0.90;0.09;0.84;-0.25;-0.57;7.69;14.02
8011;0.52;-10.17;0.75;0.09;0.84;-0.25;10.53;-1.19;8.66
8020;1.74;-9.63;0.86;0.09;0.84;-0.25;22.09;-5.78;10.96
8028;0.88;-9.60;0.98;0.08;0.84;-0.24;28.25;-10.54;10.36
8037;0.84;-9.83;1.28;0.08;0.84;-0.24;30.85;-11.31;10.46
8046;0.17;-9.66;1.43;0.08;0.84;-0.24;20.28;-10.47;9.31
8055;0.90;-9.29;1.81;0.09;0.85;-0.24;-1.15;1.11;8.08
8063;0.02;-9.38;1.57;0.09;0.85;-0.24;-25.83;13.04;5.69
8072;0.34;-9.95;1.53;0.09;0.85;-0.24;-43.86;20.68;-1.35
8081;0.35;-10.44;1.49;0.09;0.83;-0.24;-48.30;22.94;-4.97
8090;1.04;-11.08;1.65;0.09;0.83;-0.24;-41.15;17.77;-6.47
8098;1.76;-11.53;1.94;0.09;0.83;-0.24;-30.15;8.39;-4.80
8107;2.78;-11.63;2.58;0.09;0.83;-0.25;-21.54;-2.90;0.52
8116;3.83;-11.28;3.47;0.09;0.83;-0.25;-17.09;-18.89;5.65
8125;4.87;-10.46;4.38;0.09;0.83;-0.26;-14.01;-37.05;9.57
8133;5.38;-8.95;4.76;0.09;0.83;-0.26;-10.99;-60.24;11.38
8142;6.00;-7.43;5.41;0.09;0.83;-0.26;-11.99;-94.49;5.36
8151;5.82;-6.12;5.63;0.07;0.83;-0.26;-18.02;-132.54;6.29
8160;3.83;-4.18;6.28;0.07;0.83;-0.26;-22.71;-164.40;-1.17
8169;0.44;-2.24;6.86;0.07;0.83;-0.26;-25.72;-189.15;-21.53
8177;-3.94;-0.79;7.37;0.05;0.83;-0.27;-21.64;-200.00;-73.74
8186;-7.37;-0.68;8.59;0.05;0.83;-0.27;3.88;-186.04;-129.29
8195;8.69;9.39;17.04;0.05;0.83;-0.27;44.81;-144.75;-173.35
8203;-10.40;-3.44;11.82;0.00;0.84;-0.27;45.78;-48.20;-204.56
8212;-11.91;-6.88;11.74;0.00;0.84;-0.27;27.47;64.40;-206.74
8221;-12.06;-11.18;9.07;0.00;0.84;-0.27;1.53;217.83;-196.92
8230;-14.11;-14.63;3.43;-0.02;0.84;-0.26;-25.21;286.68;-168.12
8238;-14.25;-19.26;-8.26;-0.02;0.84;-0.26;-2.92;286.68;-133.90
8247;-12.18;-19.60;-19.60;-0.02;0.84;-0.26;63.59;286.68;-60.23
8256;-5.92;-19.60;-19.60;0.02;0.84;-0.26;190.65;286.68;88.65
8265;-0.39;-18.39;-19.60;0.02;0.84;-0.26;286.68;225.98;214.83
8273;5.34;-6.33;-19.60;0.02;0.84;-0.26;286.36;36.14;238.06
8282;7.03;3.35;-19.60;0.09;0.83;-0.19;155.85;-141.77;147.99
8291;1.91;4.65;-12.75;0.09;0.83;-0.19;-39.23;-233.66;5.93
8300;-3.85;0.34;-2.28;0.09;0.83;-0.19;-194.35;-233.08;-78.02
8309;-8.41;-5.23;6.91;0.06;0.84;-0.23;-227.68;-201.22;-99.36
8317;-11.58;-11.08;12.92;0.06;0.84;-0.23;-184.74;-161.19;-77.68
8326;-11.17;-14.13;16.23;0.06;0.84;-0.23;-135.95;-105.81;-41.34
8335;-9.35;-13.92;16.80;0.02;0.85;-0.27;-37.82;-34.26;-1.09
8343;-6.57;-11.98;13.95;0.02;0.85;-0.27;27.03;6.63;27.21
8352;-5.32;-9.50;10.99;0.02;0.85;-0.27;58.93;23.26;44.57
8361;-2.83;-8.12;8.73;0.03;0.84;-0.26;70.87;28.61;43.84
8370;-1.50;-8.31;6.78;0.03;0.84;-0.26;67.87;49.07;30.09
8379;-1.12;-9.21;4.24;0.03;0.84;-0.26;55.55;64.19;14.56
8387;-0.72;-10.29;1.54;0.05;0.85;-0.24;36.65;69.10;3.51
8396;-0.45;-11.04;-0.41;0.05;0.85;-0.24;25.68;61.65;2.65
8405;-0.09;-11.12;-1.49;0.05;0.85;-0.24;21.26;46.96;7.64
8413;0.23;-10.51;-1.70;0.05;0.85;-0.24;16.20;32.94;11.35
8422;0.44;-9.83;-1.30;0.05;0.85;-0.24;9.05;20.11;8.37
8431;0.86;-10.00;-0.58;0.05;0.85;-0.24;4.85;11.55;2.53
8440;0.88;-10.57;-0.39;0.06;0.84;-0.23;0.70;8.15;-0.28
8448;0.81;-11.01;-0.16;0.06;0.84;-0.23;-0.97;6.17;-1.36
8457;0.79;-11.33;0.17;0.06;0.84;-0.23;-4.19;6.90;-0.60
8466;0.63;-11.30;0.37;0.05;0.84;-0.24;-7.88;8.11;0.77
8474;0.42;-10.86;0.80;0.05;0.84;-0.24;-11.02;7.28;2.44
8483;0.39;-10.40;1.20;0.05;0.84;-0.24;-12.80;6.37;2.71
8492;0.13;-10.17;1.55;0.06;0.84;-0.25;-14.44;7.32;2.00
8501;-0.09;-9.95;1.65;0.06;0.84;-0.25;-18.28;8.60;0.31
8509;0.12;-9.96;1.30;0.06;0.84;-0.24;-20.90;10.29;-1.65
8518;-0.09;-10.03;0.78;0.06;0.84;-0.24;-21.27;9.56;-1.09
8527;-0.04;-10.24;0.43;0.06;0.84;-0.24;-17.68;5.67;1.72
8536;-0.12;-10.27;0.38;0.06;0.84;-0.23;-11.87;0.73;6.15
8545;-0.13;-9.99;0.52;0.06;0.84;-0.23;-4.18;-3.68;9.44
8553;-0.20;-9.55;0.66;0.06;0.84;-0.23;2.47;-4.60;10.91
8562;-0.23;-9.12;0.62;0.05;0.84;-0.23;1.17;-3.88;11.23
8571;-0.29;-8.82;1.11;0.05;0.84;-0.23;-1.05;-2.87;9.13
8580;-0.27;-8.81;1.23;0.05;0.84;-0.23;0.57;0.33;7.62
8589;-0.22;-8.84;1.25;0.06;0.84;-0.24;2.48;5.49;5.39
8597;-0.19;-9.10;1.02;0.06;0.84;-0.24;3.88;9.61;3.84
8606;-0.08;-9.46;0.65;0.06;0.84;-0.24;4.03;12.77;3.02
8615;0.08;-9.46;0.41;0.07;0.84;-0.24;2.22;15.65;2.03
8623;0.10;-9.42;0.11;0.07;0.84;-0.24;0.56;11.93;0.79
8632;0.15;-9.39;-0.01;0.07;0.84;-0.24;-1.44;7.24;-0.47
8641;0.12;-9.37;0.01;0.07;0.84;-0.24;-0.73;-0.48;-2.78
8650;0.00;-9.43;0.21;0.07;0.84;-0.24;1.80;-6.33;-4.92
8659;-0.08;-9.56;0.76;0.07;0.84;-0.24;1.55;-10.37;-6.08
8667;-0.22;-9.82;1.24;0.07;0.83;-0.24;1.11;-11.39;-6.89
8676;-0.26;-10.12;1.67;0.07;0.83;-0.24;1.37;-9.83;-6.44
8685;-0.34;-10.43;1.87;0.07;0.83;-0.24;0.12;-6.22;-4.75
8694;-0.36;-10.67;1.99;0.06;0.83;-0.24;-2.13;0.61;-1.80
8702;-0.31;-10.58;1.88;0.06;0.83;-0.24;-2.98;7.15;0.71
8711;-0.19;-10.28;1.62;0.06;0.83;-0.24;-2.00;10.89;2.49
8720;-0.08;-10.05;1.13;0.06;0.84;-0.24;0.60;11.91;2.75
8729;-0.15;-9.96;0.76;0.06;0.84;-0.24;1.39;8.95;1.52
8737;0.02;-10.01;0.63;0.06;0.84;-0.24;0.35;5.27;1.19
8746;-0.08;-9.99;0.67;0.07;0.83;-0.25;-0.76;0.91;0.20
8755;-0.04;-10.02;0.79;0.07;0.83;-0.25;-0.04;-1.01;-0.29
8764;-0.01;-10.18;0.95;0.07;0.83;-0.25;2.05;-0.74;-0.21
8772;-0.10;-10.17;1.05;0.07;0.84;-0.23;4.20;0.84;0.27
8781;-0.17;-10.29;0.94;0.07;0.84;-0.23;2.90;3.35;0.59
8790;-0.18;-10.31;0.93;0.07;0.84;-0.23;0.53;6.34;1.48
8798;-0.45;-10.15;1.04;0.06;0.84;-0.25;-0.38;8.71;3.96
8807;-0.17;-9.96;1.12;0.06;0.84;-0.25;1.27;9.53;4.54
8816;-0.32;-10.06;0.88;0.06;0.84;-0.25;3.17;11.35;3.86
8825;-0.08;-10.18;0.59;0.07;0.84;-0.23;4.37;11.56;3.50
8834;0.00;-10.16;0.25;0.07;0.84;-0.23;4.72;9.50;3.30
8842;0.16;-10.12;0.13;0.07;0.84;-0.25;5.00;5.50;3.43
8851;0.15;-10.03;-0.14;0.07;0.84;-0.25;4.33;0.74;3.40
8860;0.05;-9.86;0.11;0.07;0.84;-0.25;4.27;-3.47;2.76
8869;0.05;-9.74;0.43;0.07;0.84;-0.23;3.05;-6.76;2.10
8877;0.02;-9.66;0.91;0.07;0.84;-0.23;-1.87;-7.11;1.09
8886;-0.16;-9.63;1.33;0.07;0.84;-0.23;-2.60;-4.90;-0.11
8895;-0.26;-9.82;1.45;0.07;0.84;-0.24;-3.59;-1.51;-0.37
8904;-0.39;-9.92;1.43;0.07;0.84;-0.24;-2.14;0.66;1.23
8912;-0.43;-10.02;1.57;0.07;0.84;-0.24;-0.23;3.67;2.78
8921;-0.35;-10.08;1.40;0.07;0.85;-0.26;1.36;4.41;4.45
8930;-0.69;-10.21;1.21;0.07;0.85;-0.26;3.06;4.40;6.67
8938;-0.30;-9.94;1.16;0.07;0.85;-0.26;5.64;2.83;6.53
8947;-0.35;-9.73;0.71;0.08;0.84;-0.24;5.62;3.52;4.91
8956;-0.23;-9.80;0.43;0.08;0.84;-0.24;3.28;2.02;3.84
8965;-0.34;-10.01;0.41;0.08;0.84;-0.24;2.59;-1.71;3.72
8974;-0.60;-10.22;0.41;0.07;0.84;-0.24;2.35;-4.58;4.72
8982;-0.50;-10.26;0.68;0.07;0.84;-0.24;0.49;-5.14;5.54
8991;-0.65;-10.30;0.71;0.07;0.84;-0.24;-1.27;-5.57;6.55
9000;-0.75;-10.36;0.93;0.07;0.85;-0.23;-0.17;-4.99;8.23
9009;-0.93;-10.53;0.83;0.07;0.85;-0.23;1.01;-4.25;11.16
9017;-1.01;-10.56;0.76;0.07;0.85;-0.23;4.50;-5.43;13.71
9026;-0.96;-10.34;0.44;0.08;0.84;-0.25;10.38;-6.64;16.47
9035;-1.04;-9.81;-0.11;0.08;0.84;-0.25;12.19;-6.19;18.29
9044;-0.95;-9.80;-0.69;0.08;0.84;-0.25;10.82;-7.44;17.47
9052;-1.03;-9.66;-1.18;0.08;0.84;-0.24;6.68;-10.29;16.39
9061;-0.90;-9.49;-1.35;0.08;0.84;-0.24;-0.22;-16.82;15.57
9070;-0.98;-9.27;-0.81;0.08;0.84;-0.24;-7.15;-28.45;15.42
9079;-1.19;-9.18;0.12;0.08;0.84;-0.24;-7.68;-40.00;14.23
9088;-1.12;-9.28;0.93;0.08;0.84;-0.24;-6.43;-40.55;13.45
9096;-1.12;-10.09;1.80;0.08;0.84;-0.24;-3.08;-32.94;13.77
9105;-2.04;-10.64;1.79;0.08;0.84;-0.23;0.40;-24.54;15.89
9114;-1.77;-10.87;1.54;0.08;0.84;-0.23;8.44;-21.77;16.59
9123;-1.39;-10.78;1.06;0.08;0.84;-0.23;14.95;-14.35;21.10
9131;-1.33;-10.26;0.18;0.08;0.84;-0.23;17.67;-12.09;23.26
9140;-1.10;-9.75;-0.31;0.08;0.84;-0.23;17.71;-12.99;22.32
9149;-0.93;-9.24;-0.81;0.08;0.84;-0.23;12.82;-19.64;18.51
9158;-0.77;-9.02;-0.88;0.08;0.84;-0.23;3.74;-28.85;14.63
9166;-0.94;-8.69;-0.61;0.08;0.84;-0.23;-5.75;-34.97;10.38
9175;-1.06;-8.44;-0.28;0.08;0.84;-0.23;-11.30;-39.27;5.93
9184;-1.18;-8.44;-0.11;0.08;0.84;-0.24;-15.43;-39.88;1.15
9193;-1.30;-8.64;0.35;0.08;0.84;-0.24;-14.39;-35.90;-2.03
9201;-1.23;-8.97;0.70;0.07;0.84;-0.23;-10.09;-28.14;-4.06
9210;-1.45;-9.26;0.90;0.07;0.84;-0.23;-8.80;-17.67;-3.12
9219;-1.84;-9.44;0.93;0.07;0.84;-0.23;-5.03;-12.68;-7.58
9228;-1.36;-9.82;0.86;0.07;0.85;-0.23;-1.03;-11.80;-7.79
9236;-1.22;-9.83;0.72;0.07;0.85;-0.23;0.05;-12.88;-8.50
9245;-1.02;-9.86;0.54;0.07;0.85;-0.23;-0.40;-15.93;-8.22
9254;-0.89;-9.78;0.53;0.07;0.85;-0.24;-1.49;-18.32;-9.97
9263;-0.84;-9.54;0.52;0.07;0.85;-0.24;-2.50;-20.88;-13.01
9271;-0.72;-9.45;0.51;0.07;0.85;-0.24;-2.38;-24.00;-16.43
9280;-0.77;-9.48;0.60;0.07;0.84;-0.24;-0.04;-21.97;-16.98
9289;-0.88;-9.28;0.67;0.07;0.84;-0.24;1.62;-17.30;-17.59
9298;-0.65;-9.15;0.66;0.07;0.84;-0.24;2.67;-12.10;-19.64
9307;-0.46;-9.27;0.62;0.07;0.85;-0.25;0.40;-6.20;-22.75
9315;-0.45;-9.37;0.70;0.07;0.85;-0.25;-4.88;0.63;-26.13
9324;-0.55;-9.48;0.47;0.07;0.85;-0.25;-8.04;-1.36;-28.61
9333;-0.24;-9.87;0.51;0.06;0.85;-0.25;-8.53;-3.34;-26.33
9342;-0.23;-10.10;0.52;0.06;0.85;-0.25;-10.96;-6.79;-25.69
9351;-0.03;-10.47;0.41;0.06;0.85;-0.25;-15.65;-10.79;-24.29
9359;-0.29;-10.79;0.60;0.06;0.85;-0.23;-17.04;-14.01;-19.99
9368;-0.50;-10.91;0.82;0.06;0.85;-0.23;-15.31;-15.25;-14.49
9377;-0.53;-10.92;0.90;0.06;0.85;-0.23;-9.77;-14.38;-10.15
9386;-0.52;-10.43;0.87;0.05;0.85;-0.25;-6.41;-11.23;-7.65
9394;-0.55;-10.27;0.86;0.05;0.85;-0.25;-0.35;-11.67;-7.55
9403;-0.57;-10.02;0.94;0.05;0.85;-0.25;10.57;-11.98;-7.12
9412;-0.56;-9.75;1.13;0.04;0.86;-0.26;18.47;-11.28;-9.06
9421;-0.83;-9.57;0.99;0.04;0.86;-0.26;25.21;-9.77;-12.63
9429;-0.75;-9.49;0.73;0.04;0.86;-0.26;29.10;-7.90;-14.48
9438;-0.56;-9.38;0.49;0.04;0.86;-0.24;25.93;-4.30;-16.34
9447;0.15;-9.39;0.27;0.04;0.86;-0.24;12.65;-2.69;-19.13
9456;0.27;-9.74;0.18;0.04;0.86;-0.24;-6.47;-1.27;-20.45
9464;0.25;-10.12;0.36;0.04;0.85;-0.25;-19.29;-1.61;-17.18
9473;0.31;-10.13;0.51;0.04;0.85;-0.25;-26.67;-0.48;-13.87
9482;0.24;-10.00;0.78;0.04;0.85;-0.25;-37.45;0.04;-12.22
9490;0.30;-10.12;1.08;0.04;0.86;-0.24;-43.98;0.98;-10.18
9499;0.02;-10.07;1.36;0.04;0.86;-0.24;-43.58;2.32;-7.44
9508;0.08;-9.84;1.52;0.04;0.86;-0.24;-33.07;2.90;-3.83
9517;0.08;-9.53;1.66;0.04;0.86;-0.24;-11.54;2.52;-1.40
9525;0.34;-9.38;1.60;0.04;0.86;-0.24;12.49;2.13;0.07
9534;0.18;-9.18;1.40;0.04;0.83;-0.25;34.12;1.33;-0.31
9543;0.59;-9.16;1.15;0.04;0.86;-0.25;48.82;-0.44;-2.74
9552;1.09;-9.68;1.06;0.04;0.86;-0.25;54.85;-1.52;-4.08
9560;1.51;-10.08;1.03;0.04;0.85;-0.24;54.41;0.00;-2.93
9569;2.06;-10.33;0.86;0.04;0.85;-0.24;49.20;0.87;-3.27
9578;3.05;-10.53;0.86;0.04;0.85;-0.24;40.19;6.23;-1.32
9587;3.29;-10.90;1.06;0.04;0.86;-0.22;22.08;9.37;0.90
9595;3.53;-11.24;1.18;0.04;0.86;-0.22;6.16;13.77;5.43
9604;3.80;-11.48;1.58;0.04;0.86;-0.22;-9.88;20.59;11.65
9613;4.22;-11.19;1.62;0.05;0.86;-0.22;-21.38;27.49;19.09
9622;4.46;-10.96;1.54;0.05;0.86;-0.22;-23.78;32.84;22.54
9631;4.90;-10.54;1.31;0.05;0.86;-0.22;-19.15;32.91;22.40
9640;5.29;-10.39;0.84;0.06;0.87;-0.23;-7.42;26.33;17.63
9648;5.33;-10.29;0.57;0.06;0.87;-0.23;2.77;14.56;14.11
9657;6.03;-10.54;0.60;0.06;0.87;-0.23;10.17;6.04;7.12
9666;5.46;-10.74;0.44;0.06;0.86;-0.22;10.07;-0.41;4.89
9674;5.30;-10.95;0.39;0.06;0.86;-0.22;6.05;-6.77;0.11
9683;4.64;-10.85;0.33;0.06;0.86;-0.22;-0.92;-16.17;-2.67
9692;4.14;-10.78;0.50;0.06;0.87;-0.22;-12.19;-24.11;-4.16
9701;3.15;-10.74;0.97;0.06;0.87;-0.22;-17.70;-31.41;-6.34
9710;2.01;-10.76;1.75;0.06;0.87;-0.22;-17.52;-33.61;-6.40
9718;0.98;-10.65;2.38;0.06;0.86;-0.24;-14.13;-29.83;-6.45
9727;0.26;-10.73;2.76;0.06;0.86;-0.24;-9.84;-21.15;-5.43
9736;-0.31;-10.73;2.65;0.06;0.86;-0.24;-7.69;-12.81;-4.18
9745;-0.64;-10.74;2.10;0.05;0.86;-0.23;-5.60;-5.99;-1.15
9753;-1.05;-10.68;1.78;0.05;0.86;-0.23;-3.28;-2.84;1.87
9762;-1.47;-10.60;1.55;0.05;0.86;-0.23;0.60;-1.00;4.40
9771;-1.75;-10.46;1.24;0.05;0.87;-0.23;2.71;0.41;6.82
9780;-2.01;-10.34;1.03;0.05;0.87;-0.23;2.51;2.42;8.32
9788;-2.09;-10.19;0.67;0.05;0.87;-0.23;0.65;3.53;9.78
9797;-2.11;-10.01;0.35;0.05;0.86;-0.23;-0.94;3.63;10.85
9806;-2.02;-9.75;0.25;0.05;0.86;-0.23;-1.92;2.52;11.80
9815;-2.04;-9.44;0.33;0.05;0.86;-0.23;-3.53;1.72;12.00
9823;-1.95;-9.35;0.51;0.06;0.86;-0.22;-4.09;1.40;11.40
9832;-1.91;-9.21;0.67;0.06;0.86;-0.22;-4.18;3.20;10.37
9841;-1.64;-9.15;0.76;0.06;0.86;-0.22;-3.83;4.43;8.80
9850;-1.18;-9.14;0.82;0.06;0.86;-0.23;-3.93;5.57;6.93
9858;-0.69;-9.19;0.90;0.06;0.86;-0.23;-4.09;5.42;4.87
9867;-0.41;-9.27;0.97;0.06;0.86;-0.23;-2.59;4.89;3.48
9876;-0.10;-9.34;1.13;0.06;0.86;-0.23;-0.16;5.07;2.55
9885;0.15;-9.32;1.10;0.06;0.86;-0.23;-0.10;5.55;0.29
9893;0.34;-9.51;0.95;0.06;0.85;-0.23;0.05;5.36;-1.73
9902;0.59;-9.77;0.91;0.06;0.85;-0.23;0.06;3.76;-2.35
9911;0.83;-9.87;0.85;0.06;0.85;-0.23;-0.31;2.37;-2.67
9920;0.84;-10.02;0.91;0.06;0.85;-0.24;-0.86;1.42;-3.41
9928;0.79;-10.21;1.10;0.06;0.85;-0.24;-0.31;2.08;-3.39
9937;0.79;-10.35;1.09;0.06;0.85;-0.24;0.58;4.42;-3.03
9946;0.85;-10.45;1.04;0.06;0.85;-0.23;-0.08;5.70;-2.83
9955;0.86;-10.47;0.79;0.06;0.85;-0.23;0.04;5.57;-1.58
9963;0.78;-10.37;0.68;0.06;0.85;-0.23;0.05;5.16;-0.86
9972;0.71;-10.32;0.63;0.06;0.84;-0.22;-0.45;4.78;0.10
9981;0.56;-10.17;0.57;0.06;0.84;-0.22;-1.15;4.34;-0.03
9990;0.34;-10.10;0.49;0.06;0.84;-0.22;-1.37;4.50;0.90
9998;0.22;-9.89;0.42;0.06;0.85;-0.23;-1.99;4.85;1.41
10007;0.08;-9.83;0.36;0.06;0.85;-0.23;-3.17;4.89;1.03
10016;0.02;-9.79;0.21;0.06;0.85;-0.23;-2.51;4.42;1.04
10025;0.01;-9.74;0.15;0.06;0.85;-0.24;-1.15;3.16;0.92
10033;-0.13;-9.81;0.12;0.06;0.85;-0.24;1.36;2.30;4.29
10042;-0.19;-9.67;0.13;0.06;0.85;-0.24;3.78;1.78;2.47
10051;-0.17;-9.57;0.11;0.06;0.86;-0.23;2.00;0.91;1.20
10060;-0.07;-9.63;0.05;0.06;0.86;-0.23;0.48;-0.77;0.10
10068;0.02;-9.70;0.19;0.06;0.86;-0.23;0.07;-3.05;-0.54
10077;0.12;-9.70;0.13;0.06;0.85;-0.23;-0.03;-6.55;-1.65
10086;0.20;-9.75;0.42;0.06;0.85;-0.23;-1.29;-7.90;-2.77
10095;0.18;-9.82;0.82;0.06;0.85;-0.23;-2.30;-5.47;-1.49
10103;0.01;-9.77;0.94;0.06;0.86;-0.23;-1.42;-2.45;-0.69
10112;0.20;-9.65;0.73;0.06;0.86;-0.23;1.04;-0.53;-0.58
10121;0.28;-9.61;0.60;0.06;0.86;-0.23;2.00;-0.57;-1.80
10130;0.30;-9.67;0.59;0.07;0.85;-0.23;2.97;-2.69;-3.22
10138;0.39;-9.73;0.56;0.07;0.85;-0.23;2.43;-4.55;-4.04
10147;0.35;-9.78;0.56;0.07;0.85;-0.23;0.98;-5.64;-5.44
10156;0.26;-9.86;0.71;0.06;0.85;-0.23;-2.24;-5.62;-5.46
10165;0.06;-9.95;0.90;0.06;0.85;-0.23;-0.24;-4.30;-4.52
10173;-0.08;-9.97;0.94;0.06;0.85;-0.23;-0.95;-2.90;-2.56
10182;-0.07;-9.89;0.97;0.06;0.86;-0.24;-0.31;-0.43;-0.86
10191;0.01;-9.78;0.81;0.06;0.86;-0.24;-0.35;1.46;-0.68
10199;0.03;-9.80;0.73;0.06;0.86;-0.24;-0.35;1.64;-1.65
10208;0.14;-9.86;0.72;0.06;0.86;-0.22;0.07;1.09;-2.95
10217;0.00;-9.96;0.70;0.06;0.86;-0.22;1.14;0.15;-3.62
10226;0.06;-10.04;0.62;0.06;0.86;-0.22;1.38;-1.50;-4.43
10235;-0.01;-10.08;0.72;0.07;0.86;-0.22;0.90;-2.86;-5.07
10243;-0.07;-10.08;0.75;0.07;0.86;-0.22;0.16;-3.30;-5.31
10252;-0.17;-10.09;0.83;0.07;0.87;-0.24;-1.54;-3.22;-5.89
10261;-0.12;-10.16;0.91;0.07;0.87;-0.24;-2.60;-2.88;-6.20
10270;-0.26;-10.21;0.98;0.07;0.87;-0.24;-3.02;-1.23;-5.71
10278;-0.15;-10.38;1.07;0.06;0.86;-0.23;-4.13;0.61;-5.05
10287;-0.11;-10.30;1.06;0.06;0.86;-0.23;-4.61;2.44;-5.07
10296;-0.07;-10.35;1.06;0.06;0.86;-0.23;-3.22;3.32;-4.99
10305;0.03;-10.41;0.97;0.05;0.86;-0.24;0.88;3.13;-5.25
10314;0.31;-10.46;0.89;0.05;0.86;-0.24;3.61;2.70;-5.52
10322;0.28;-10.54;0.75;0.05;0.86;-0.24;5.79;1.49;-6.07
10331;0.44;-10.49;0.68;0.05;0.86;-0.24;7.32;0.04;-5.63
10340;0.55;-10.44;0.58;0.05;0.86;-0.24;7.87;-1.72;-5.85
10349;0.69;-10.41;0.56;0.05;0.86;-0.24;6.52;-3.54;-6.12
10357;0.85;-10.37;0.66;0.06;0.86;-0.23;6.10;-4.44;-5.99
10366;0.93;-10.29;0.74;0.06;0.86;-0.23;5.98;-4.53;-6.02
10375;0.98;-10.41;0.83;0.06;0.86;-0.23;4.78;-3.48;-5.66
10384;1.09;-10.57;0.95;0.06;0.87;-0.22;2.68;-1.11;-4.11
10392;1.22;-10.61;0.96;0.06;0.87;-0.22;-0.60;1.95;-1.99
10401;1.37;-10.67;1.02;0.06;0.87;-0.22;-4.05;4.33;-0.05
10410;1.59;-10.66;0.86;0.05;0.86;-0.22;-6.92;6.05;2.13
10419;1.67;-10.57;0.84;0.05;0.86;-0.22;-6.82;6.26;4.00
10428;1.77;-10.52;0.74;0.05;0.86;-0.22;-6.89;4.79;4.56
10436;1.82;-10.46;0.75;0.06;0.87;-0.22;-5.68;2.75;4.49
10445;1.91;-10.30;0.70;0.06;0.87;-0.22;-2.93;0.88;4.33
10454;2.05;-10.11;0.82;0.06;0.87;-0.22;-0.79;-1.01;2.79
10463;2.20;-9.92;0.82;0.05;0.87;-0.22;-1.04;-4.14;0.01
10471;2.27;-9.86;0.99;0.05;0.87;-0.22;-1.96;-4.90;-3.26
10480;2.04;-10.10;1.21;0.05;0.87;-0.22;-2.05;-5.25;-6.42
10489;1.72;-10.35;1.43;0.06;0.86;-0.24;4.41;-4.08;-5.53
10498;1.46;-10.74;1.74;0.06;0.86;-0.24;15.37;3.82;1.62
10506;1.60;-10.65;1.40;0.06;0.86;-0.24;25.34;9.14;7.36
10515;1.81;-10.41;0.86;0.05;0.87;-0.22;26.09;11.70;8.40
10524;2.28;-10.54;0.47;0.05;0.87;-0.22;25.93;11.00;11.09
10533;2.37;-10.61;0.28;0.05;0.87;-0.22;26.55;8.92;10.15
10541;2.48;-10.72;0.23;0.05;0.87;-0.21;24.20;6.73;11.69
10550;2.53;-10.68;0.35;0.05;0.87;-0.21;18.84;4.82;13.30
10559;2.69;-10.65;0.53;0.05;0.87;-0.21;9.49;4.88;14.94
10568;2.42;-10.50;0.74;0.06;0.87;-0.21;-4.10;6.92;16.19
10576;2.12;-10.48;0.91;0.06;0.87;-0.21;-15.89;10.60;18.56
10585;2.00;-10.45;1.18;0.06;0.87;-0.22;-17.99;16.60;25.05
10594;2.35;-9.99;1.42;0.06;0.87;-0.22;-13.10;22.18;30.18
10603;2.72;-9.73;1.19;0.06;0.87;-0.22;-2.79;22.82;33.45
10611;3.13;-9.53;1.07;0.07;0.87;-0.22;12.62;21.02;34.87
10620;3.57;-9.30;1.06;0.07;0.87;-0.22;22.61;18.73;33.05
10629;3.74;-9.30;0.68;0.07;0.87;-0.22;28.64;18.03;29.21
10638;4.01;-9.61;0.54;0.09;0.86;-0.20;30.87;11.66;20.50
10647;4.03;-9.39;-0.03;0.09;0.86;-0.20;23.32;17.62;19.47
10655;3.41;-9.46;-0.31;0.09;0.86;-0.20;4.37;16.00;17.07
10664;3.33;-9.46;-0.49;0.08;0.87;-0.21;-14.28;10.59;11.26
10673;3.22;-9.73;-0.12;0.08;0.87;-0.21;-30.30;2.27;7.39
10682;3.25;-10.03;0.76;0.08;0.87;-0.21;-37.13;-3.93;7.12
10691;3.06;-9.85;1.47;0.09;0.86;-0.21;-33.84;-6.14;6.48
10699;3.06;-9.67;1.65;0.09;0.86;-0.21;-28.49;-9.25;3.67
10708;3.35;-9.74;1.81;0.09;0.86;-0.21;-22.09;-17.46;-0.51
10717;3.86;-10.21;2.13;0.08;0.86;-0.22;-16.33;-29.51;-3.26
10725;4.02;-10.43;2.52;0.08;0.86;-0.22;-13.12;-45.88;-4.12
10734;4.12;-10.37;2.80;0.08;0.86;-0.22;-11.80;-67.99;-7.05
10743;4.29;-10.02;3.29;0.07;0.86;-0.22;-25.38;-98.85;-15.06
10752;4.18;-9.01;4.27;0.07;0.86;-0.22;-47.05;-130.31;-24.37
10761;2.24;-7.48;5.44;0.07;0.86;-0.22;-69.90;-158.84;-44.08
10770;0.28;-4.78;7.01;0.05;0.85;-0.25;-93.92;-180.83;-62.77
10778;-2.31;-1.71;8.99;0.05;0.85;-0.25;-133.20;-177.49;-81.01
10787;-7.26;0.07;10.94;0.05;0.85;-0.25;-196.36;-123.37;-133.45
10796;-12.75;-0.05;12.07;-0.01;0.84;-0.27;-232.48;-88.02;-201.53
10805;-13.33;-0.84;13.67;-0.01;0.84;-0.27;-188.48;-23.74;-231.03
10813;-13.28;-3.58;13.54;-0.01;0.84;-0.27;-27.20;72.62;-232.60
10822;-13.39;-7.90;9.01;-0.03;0.83;-0.31;115.94;203.88;-212.86
10831;-18.49;-12.33;2.28;-0.03;0.83;-0.31;193.38;286.68;-196.10
10840;-19.60;-19.60;-7.77;-0.03;0.83;-0.31;196.37;286.68;-160.51
10848;-17.79;-19.60;-19.60;-0.01;0.84;-0.27;199.70;286.68;-77.91
10857;-8.16;-19.60;-19.60;-0.01;0.84;-0.27;285.80;286.68;82.43
10866;-2.03;-19.60;-19.60;-0.01;0.84;-0.27;286.68;233.74;271.14
10875;5.20;-5.19;-19.60;0.06;0.84;-0.20;286.68;49.05;286.68
10884;8.18;4.71;-19.60;0.06;0.84;-0.20;162.30;-129.33;192.33
10892;2.50;6.88;-14.95;0.06;0.84;-0.17;-95.16;-225.51;23.78
10901;-3.63;2.52;-3.46;0.09;0.84;-0.17;-264.72;-241.96;-89.07
10910;-10.13;-2.47;5.92;0.09;0.84;-0.17;-284.12;-229.49;-102.05
10919;-14.74;-8.51;17.81;0.04;0.86;-0.24;-224.37;-222.70;-81.06
10927;-14.08;-13.26;19.60;0.04;0.86;-0.24;-138.82;-157.43;-35.74
10936;-11.76;-14.25;19.60;0.04;0.86;-0.24;-45.26;-60.00;5.52
10945;-8.63;-11.73;18.49;0.02;0.85;-0.26;25.62;13.29;31.69
10954;-6.56;-9.28;12.92;0.02;0.85;-0.26;60.87;48.95;44.52
10962;-2.96;-7.92;7.90;0.02;0.85;-0.26;74.66;63.94;40.15
10971;-1.04;-7.55;4.16;0.04;0.84;-0.24;76.72;69.71;31.15
10980;-0.08;-8.07;1.26;0.04;0.84;-0.24;61.01;65.38;21.67
10989;0.06;-9.03;-0.58;0.04;0.84;-0.24;34.87;53.88;11.31
10998;-0.26;-9.92;-1.29;0.05;0.84;-0.23;12.75;40.98;5.22
11006;-0.17;-10.36;-1.59;0.05;0.84;-0.23;1.39;27.51;2.29
11015;0.13;-10.19;-1.53;0.05;0.84;-0.23;-1.10;16.12;1.92
11024;0.44;-10.07;-0.90;0.05;0.84;-0.22;2.31;4.56;2.86
11033;0.81;-9.86;-0.33;0.05;0.84;-0.22;5.93;-2.01;1.69
11041;0.95;-9.86;0.24;0.05;0.84;-0.22;0.96;-2.98;0.03
11050;0.97;-9.96;0.48;0.05;0.84;-0.23;-10.46;-1.01;-3.26
11059;0.83;-10.09;0.64;0.05;0.84;-0.23;-13.54;-0.31;-7.64
11068;0.95;-10.31;0.86;0.05;0.84;-0.23;-14.81;1.72;-10.74
11076;0.83;-10.25;0.90;0.05;0.84;-0.24;-12.77;4.80;-10.91
11085;0.63;-10.19;1.00;0.05;0.84;-0.24;-11.80;7.75;-9.20
11094;0.34;-9.98;1.20;0.05;0.84;-0.24;-10.46;10.23;-8.93
11103;0.25;-9.85;1.09;0.05;0.85;-0.23;-11.09;14.23;-7.87
11111;0.05;-9.71;0.91;0.05;0.85;-0.23;-11.39;17.41;-5.99
11120;0.03;-10.03;0.98;0.05;0.85;-0.23;-7.83;19.91;-4.43
11129;0.00;-10.20;0.09;0.05;0.84;-0.24;0.21;19.00;-2.39
11137;0.07;-10.14;-0.34;0.05;0.84;-0.24;8.02;17.78;1.93
11146;-0.12;-10.03;-0.75;0.05;0.84;-0.24;8.23;8.66;1.54
11155;0.07;-9.98;-0.75;0.05;0.85;-0.23;2.06;4.12;2.57
11164;0.05;-10.02;-0.74;0.05;0.85;-0.23;-3.32;-0.01;0.91
11173;-0.16;-10.03;-0.30;0.05;0.85;-0.23;-5.39;-2.53;1.36
11181;-0.22;-9.96;-0.06;0.05;0.84;-0.23;-3.59;-1.25;3.33
11190;-0.75;-9.78;0.07;0.05;0.84;-0.23;-1.51;-4.07;4.03
11199;-0.48;-9.76;0.50;0.05;0.84;-0.23;-1.13;-3.30;5.30
11208;-0.57;-9.60;0.59;0.05;0.85;-0.23;-0.52;-0.94;5.68
11216;-0.40;-9.61;0.49;0.05;0.85;-0.23;1.57;1.27;5.10
11225;-0.36;-9.72;0.33;0.05;0.85;-0.23;2.49;4.25;5.95
11234;-0.27;-9.73;0.24;0.05;0.85;-0.23;0.90;1.87;3.20
11243;-0.19;-9.66;0.18;0.05;0.85;-0.23;-1.37;-0.94;0.73
11251;-0.21;-9.74;0.50;0.07;0.85;-0.23;-1.09;-2.53;-1.28
11260;-0.32;-9.85;0.78;0.07;0.85;-0.23;-0.74;-3.77;-3.07
11269;-0.41;-9.93;0.99;0.07;0.85;-0.23;-1.84;-4.43;-4.72
11278;-0.40;-10.20;1.31;0.06;0.85;-0.22;-3.81;-2.69;-6.07
11286;-0.55;-10.55;1.22;0.06;0.85;-0.22;-6.80;2.14;-5.47
11295;-0.47;-10.67;1.00;0.06;0.85;-0.22;-7.01;4.05;-2.59
11304;-0.38;-10.84;0.78;0.06;0.85;-0.23;-3.07;4.31;0.03
11313;-0.50;-10.61;0.53;0.06;0.85;-0.23;-0.31;2.62;3.05
11321;-0.32;-10.44;0.49;0.06;0.85;-0.23;-1.21;-0.25;6.55
11330;-0.36;-10.10;0.69;0.06;0.84;-0.24;-1.90;-3.45;6.34
11339;-0.23;-9.88;0.81;0.06;0.84;-0.24;0.81;-5.23;5.98
11348;-0.29;-9.83;0.84;0.06;0.84;-0.24;2.71;-5.04;4.81
11356;-0.20;-9.72;0.99;0.06;0.85;-0.23;2.15;-3.98;3.89
11365;-0.14;-9.50;1.01;0.06;0.85;-0.23;-1.37;-2.06;1.50
11374;-0.23;-9.54;1.06;0.06;0.85;-0.23;-4.81;-0.52;-0.25
11383;-0.26;-9.80;0.97;0.06;0.84;-0.23;-2.08;1.42;-0.40
11391;-0.28;-10.03;0.85;0.06;0.84;-0.23;2.73;2.63;1.09
11400;-0.20;-10.15;0.58;0.06;0.84;-0.23;5.53;3.11;2.13
11409;-0.23;-9.92;0.28;0.05;0.84;-0.22;4.56;2.73;1.72
11418;-0.14;-9.83;0.22;0.05;0.84;-0.22;-2.50;1.12;0.31
11426;-0.30;-9.92;0.35;0.05;0.84;-0.22;-8.83;0.71;-1.64
11435;-0.37;-10.06;0.35;0.06;0.86;-0.22;-8.72;0.17;-1.69
11444;-0.43;-10.18;0.40;0.06;0.86;-0.22;-6.50;-0.19;-0.58
11453;-0.49;-10.11;0.37;0.06;0.86;-0.22;-4.38;-1.42;1.31
11461;-0.25;-9.68;0.46;0.05;0.85;-0.23;-5.80;-3.24;1.85
11470;-0.07;-9.30;0.81;0.05;0.85;-0.23;-10.51;-2.60;-0.35
11479;-0.16;-9.30;1.08;0.05;0.85;-0.23;-14.81;-0.17;-3.08
11488;-0.19;-9.52;1.10;0.05;0.85;-0.23;-13.07;1.56;-3.61
11496;-0.24;-9.94;0.85;0.05;0.85;-0.23;-9.42;4.03;-0.67
11505;-0.27;-9.78;0.68;0.05;0.85;-0.23;-6.57;0.83;-3.12
11514;-0.31;-9.89;0.65;0.06;0.85;-0.23;-5.22;-1.83;-2.24
11523;-0.33;-9.77;0.97;0.06;0.85;-0.23;-2.38;-2.69;-1.78
11531;-0.32;-9.73;1.07;0.06;0.85;-0.23;-0.45;-1.94;-2.00
11540;-0.35;-9.80;0.96;0.05;0.85;-0.24;0.86;-1.00;-2.35
11549;-0.31;-9.87;0.81;0.05;0.85;-0.24;0.45;-0.46;-2.62
11558;-0.24;-9.94;0.72;0.05;0.85;-0.24;-2.05;-1.23;-2.97
11566;-0.28;-10.00;0.69;0.06;0.84;-0.23;-3.82;-2.28;-3.45
11575;-0.16;-10.02;0.64;0.06;0.84;-0.23;-5.10;-3.38;-3.78
11584;-0.40;-10.06;0.83;0.06;0.84;-0.23;-7.06;-3.83;-3.55
11593;-0.43;-10.09;1.01;0.05;0.85;-0.24;-6.54;-4.59;-2.46
11601;-0.57;-10.15;1.02;0.05;0.85;-0.24;-3.56;-4.51;-0.58
11610;-0.52;-10.27;1.24;0.06;0.84;-0.23;-0.72;-4.66;1.25
11619;-0.79;-10.36;1.20;0.06;0.84;-0.23;-0.40;-3.09;3.46
11628;-0.92;-10.42;1.04;0.06;0.84;-0.23;-1.35;-2.04;6.41
11636;-0.70;-10.36;1.01;0.06;0.85;-0.23;-1.40;-3.31;5.31
11645;-0.80;-10.50;0.72;0.06;0.85;-0.23;-0.37;-2.29;7.50
11654;-0.69;-10.45;0.48;0.06;0.85;-0.23;1.01;-3.31;9.26
11663;-0.71;-10.37;0.37;0.06;0.85;-0.24;0.88;-5.76;10.78
11671;-0.71;-10.15;0.23;0.06;0.85;-0.24;-3.21;-8.16;10.76
11680;-0.77;-10.10;0.36;0.06;0.85;-0.24;-7.94;-10.43;9.72
11689;-0.93;-10.12;0.42;0.06;0.85;-0.22;-12.11;-11.41;8.72
11698;-1.04;-10.30;0.55;0.06;0.85;-0.22;-15.99;-10.19;9.08
11706;-1.40;-10.31;0.49;0.06;0.85;-0.22;-18.01;-9.27;10.46
11715;-1.21;-10.68;0.73;0.06;0.85;-0.24;-16.27;-8.03;17.27
11724;-1.41;-10.70;0.58;0.06;0.85;-0.24;-11.78;-2.83;18.53
11733;-2.06;-10.52;0.50;0.06;0.85;-0.24;-7.05;-9.48;21.91
11742;-1.84;-10.71;0.47;0.05;0.84;-0.24;-0.90;-13.29;23.88
11750;-1.71;-10.48;0.53;0.05;0.84;-0.24;2.69;-16.84;27.56
11759;-1.61;-10.24;0.32;0.05;0.84;-0.24;4.05;-18.93;29.65
11768;-1.48;-10.05;0.14;0.06;0.84;-0.25;1.64;-21.39;30.37
11777;-1.45;-9.95;0.15;0.06;0.84;-0.25;-0.62;-22.72;29.92
11786;-1.38;-9.74;0.11;0.06;0.84;-0.25;1.08;-24.50;30.66
11794;-1.38;-9.63;0.13;0.07;0.84;-0.25;2.47;-25.89;30.94
11803;-0.98;-9.63;0.32;0.07;0.84;-0.25;1.22;-24.81;32.84
11812;-1.37;-9.30;0.47;0.07;0.84;-0.25;-0.23;-24.69;29.96
11821;-1.18;-9.24;0.66;0.06;0.85;-0.25;-2.91;-20.38;30.63
11829;-1.43;-9.36;0.78;0.06;0.85;-0.25;-4.25;-15.35;30.19
11838;-1.40;-9.50;0.87;0.06;0.85;-0.25;-4.04;-11.23;31.38
11847;-1.83;-9.49;0.55;0.07;0.84;-0.24;-3.15;-11.24;31.57
11856;-1.19;-9.18;0.20;0.07;0.84;-0.24;-1.09;-15.70;31.99
11864;-0.90;-8.73;0.00;0.07;0.84;-0.24;-1.26;-22.39;28.70
11873;-0.74;-8.25;-0.02;0.07;0.84;-0.25;-2.74;-29.63;23.00
11882;-0.57;-8.03;0.30;0.07;0.84;-0.25;-4.42;-34.72;16.56
11891;-0.36;-7.85;0.60;0.07;0.84;-0.25;-6.19;-36.15;8.97
11900;-0.43;-7.82;0.85;0.07;0.84;-0.25;-9.13;-35.21;-0.44
11908;-0.45;-8.00;1.05;0.07;0.84;-0.25;-13.20;-30.46;-9.51
11917;-0.60;-8.45;1.23;0.07;0.84;-0.25;-18.95;-25.34;-19.18
11926;-0.65;-8.98;1.27;0.07;0.84;-0.25;-23.02;-19.67;-23.68
11935;-0.91;-9.65;1.37;0.07;0.84;-0.25;-23.65;-15.72;-21.81
11943;-0.95;-9.87;1.40;0.06;0.84;-0.25;-16.49;-11.20;-15.89
11952;-1.30;-9.65;1.16;0.06;0.84;-0.25;-2.35;-10.15;-9.31
11961;-0.93;-9.46;0.73;0.06;0.84;-0.25;13.81;-14.82;-7.99
11970;-0.79;-9.42;0.51;0.06;0.84;-0.25;26.17;-21.42;-6.83
11978;-0.52;-9.16;0.33;0.06;0.84;-0.25;30.02;-28.15;-8.51
11987;-0.35;-9.07;0.70;0.06;0.84;-0.25;23.46;-31.63;-11.42
11996;-0.14;-9.40;1.00;0.05;0.85;-0.24;13.40;-26.43;-16.66
12005;-0.30;-9.26;1.16;0.05;0.85;-0.24;0.34;-19.57;-20.41
12013;-0.05;-9.39;1.27;0.05;0.85;-0.24;-13.27;-10.88;-24.17
12022;-0.06;-9.65;1.22;0.05;0.85;-0.24;-22.58;-2.61;-26.08
12031;-0.27;-9.89;1.19;0.05;0.85;-0.24;-23.64;4.25;-23.62
12040;-0.29;-9.84;1.06;0.05;0.85;-0.24;-12.01;7.56;-19.69
12048;-0.23;-9.52;0.67;0.05;0.85;-0.25;6.68;8.73;-15.77
12057;-0.06;-9.63;0.32;0.05;0.85;-0.25;23.55;0.38;-14.85
12066;-0.16;-9.94;0.17;0.05;0.85;-0.25;35.88;-7.09;-14.24
12075;0.16;-9.89;0.10;0.05;0.85;-0.24;39.04;-13.37;-14.53
12083;0.06;-9.78;0.28;0.05;0.85;-0.24;27.54;-15.14;-18.41
12092;0.11;-9.66;0.54;0.05;0.85;-0.24;10.22;-15.06;-24.99
12101;-0.06;-9.64;0.81;0.04;0.86;-0.25;-9.05;-12.85;-33.56
12110;-0.30;-9.94;1.18;0.04;0.86;-0.25;-30.95;-7.04;-39.40
12118;-0.47;-10.14;1.30;0.04;0.86;-0.25;-43.62;-1.12;-41.44
12127;-0.53;-10.68;1.30;0.03;0.86;-0.25;-46.18;4.48;-35.17
12136;-0.61;-10.43;1.20;0.03;0.86;-0.25;-37.57;7.55;-25.53
12145;-0.38;-10.05;1.00;0.03;0.86;-0.25;-19.99;5.65;-20.33
12154;-0.49;-9.62;1.19;0.03;0.87;-0.25;-6.74;-1.92;-21.22
12162;0.02;-9.85;1.03;0.03;0.87;-0.25;6.51;-12.23;-21.59
12171;0.12;-9.99;1.34;0.03;0.87;-0.25;12.97;-20.60;-23.22
12180;-0.15;-10.29;1.86;0.02;0.87;-0.27;14.54;-25.04;-22.05
12189;-0.33;-10.55;2.45;0.02;0.87;-0.27;14.81;-21.80;-19.61
12197;-0.62;-10.56;2.75;0.02;0.87;-0.27;12.87;-16.37;-17.18
12206;-0.37;-10.80;2.88;0.01;0.87;-0.25;14.17;-7.34;-13.77
12215;-0.26;-10.82;2.70;0.01;0.87;-0.25;20.14;0.29;-10.56
12224;-0.04;-10.94;2.48;0.01;0.87;-0.25;21.47;5.43;-8.98
12233;0.53;-11.11;2.16;0.01;0.87;-0.26;23.21;8.31;-4.59
12242;0.96;-11.04;2.01;0.01;0.87;-0.26;26.86;7.40;-0.21
12250;1.19;-11.08;2.15;0.01;0.87;-0.24;31.69;5.78;4.08
12259;1.42;-11.00;2.16;0.02;0.87;-0.24;36.59;5.59;8.40
12268;1.71;-11.01;2.10;0.02;0.87;-0.24;40.91;5.92;10.99
12277;1.88;-10.98;1.66;0.02;0.87;-0.23;43.79;4.45;11.12
12285;2.25;-10.99;1.22;0.02;0.87;-0.23;45.81;2.06;10.12
12294;2.72;-11.00;1.13;0.02;0.87;-0.23;44.92;0.93;9.01
12303;2.80;-11.09;1.25;0.03;0.88;-0.22;38.26;4.54;10.76
12312;2.97;-11.36;1.37;0.03;0.88;-0.22;35.31;11.92;13.12
12320;3.40;-11.37;1.07;0.03;0.88;-0.22;32.67;20.80;16.70
12329;3.68;-11.41;0.49;0.03;0.87;-0.22;26.28;24.64;17.09
12338;4.75;-11.40;0.19;0.03;0.87;-0.22;11.65;25.15;19.27
12347;5.00;-11.30;-0.37;0.03;0.87;-0.22;-1.46;27.45;21.38
12355;4.84;-11.12;-0.50;0.04;0.88;-0.21;-13.76;20.50;21.99
12364;4.84;-10.88;-0.43;0.04;0.88;-0.21;-20.11;11.52;21.16
12373;4.46;-10.53;-0.28;0.04;0.88;-0.21;-22.99;6.07;18.51
12382;4.15;-10.17;-0.21;0.04;0.87;-0.22;-19.97;-0.60;16.14
12391;3.23;-9.77;-0.01;0.04;0.87;-0.22;-11.17;-6.42;13.72
12399;2.32;-9.43;0.20;0.04;0.87;-0.22;-1.66;-9.28;11.81
12408;1.63;-9.29;0.53;0.05;0.86;-0.21;6.50;-6.77;7.43
12417;0.98;-9.42;0.59;0.05;0.86;-0.21;4.72;-2.20;3.80
12426;0.47;-9.72;0.29;0.05;0.86;-0.21;3.45;1.58;3.37
12434;0.08;-9.83;0.02;0.05;0.87;-0.22;3.01;2.69;3.40
12443;-0.24;-9.99;-0.11;0.05;0.87;-0.22;1.58;1.67;4.45
12452;-0.58;-10.08;-0.07;0.05;0.87;-0.22;-0.11;-0.78;5.58
12461;-0.96;-10.00;0.09;0.05;0.87;-0.22;-1.87;-1.81;7.57
12469;-1.30;-9.90;0.12;0.05;0.87;-0.22;-3.76;-3.18;8.31
12478;-1.53;-9.88;0.30;0.05;0.87;-0.22;-2.00;-3.63;9.84
12487;-1.58;-9.87;0.31;0.06;0.87;-0.22;2.56;-4.56;11.45
12496;-1.66;-9.78;0.53;0.06;0.87;-0.22;6.36;-2.93;14.07
12505;-1.67;-9.73;0.58;0.06;0.87;-0.22;6.62;-0.50;14.44
12513;-1.49;-9.67;0.64;0.05;0.87;-0.21;5.69;1.91;14.53
12522;-1.32;-9.67;0.67;0.05;0.87;-0.21;4.37;3.31;14.20
12531;-1.14;-9.63;0.55;0.05;0.87;-0.21;3.69;2.81;13.62
12539;-0.73;-9.53;0.53;0.06;0.87;-0.21;3.31;0.77;11.96
12548;-0.41;-9.52;0.54;0.06;0.87;-0.21;1.48;-1.77;10.15
12557;-0.21;-9.49;0.53;0.06;0.87;-0.21;-1.70;-4.33;7.95
12566;0.14;-9.39;0.76;0.06;0.87;-0.21;-5.95;-5.54;5.57
12575;0.16;-9.46;0.90;0.06;0.87;-0.21;-9.77;-5.01;3.23
12583;0.35;-9.64;1.06;0.06;0.87;-0.20;-9.97;-3.21;2.07
12592;0.48;-9.67;1.20;0.06;0.87;-0.20;-8.14;-0.25;2.18
12601;0.49;-9.63;1.25;0.06;0.87;-0.20;-5.88;2.52;1.00
12610;0.77;-9.78;1.16;0.06;0.87;-0.21;-3.16;6.68;-0.74
12618;0.79;-9.96;0.99;0.06;0.87;-0.21;-0.86;6.10;-1.75
12627;0.85;-10.09;0.83;0.06;0.87;-0.21;3.12;6.24;-1.69
12636;0.84;-10.14;0.86;0.06;0.87;-0.22;4.20;6.06;-2.91
12645;0.79;-10.22;0.68;0.06;0.87;-0.22;2.58;5.54;-4.18
12653;0.63;-10.30;0.67;0.06;0.87;-0.22;-0.24;6.21;-3.66
12662;0.53;-10.33;0.69;0.06;0.87;-0.21;-2.27;6.36;-2.78
12671;0.42;-10.33;0.60;0.06;0.87;-0.21;-2.20;6.30;-1.23
12680;0.27;-10.20;0.56;0.06;0.87;-0.21;-1.52;7.27;0.63
12688;0.16;-10.11;0.55;0.06;0.85;-0.21;-1.29;9.05;1.43
12697;0.04;-10.09;0.45;0.06;0.85;-0.21;-0.05;10.40;2.14
12706;0.09;-10.06;0.35;0.06;0.85;-0.21;1.06;12.07;3.14
12715;-0.01;-10.09;0.20;0.06;0.87;-0.21;2.05;12.93;4.47
12724;0.17;-10.08;0.00;0.06;0.87;-0.21;4.69;12.72;5.82
12732;0.30;-9.99;-0.13;0.06;0.87;-0.21;4.79;10.75;5.94
12741;0.30;-10.04;-0.26;0.07;0.86;-0.22;3.10;7.59;4.85
12750;0.41;-9.97;-0.36;0.07;0.86;-0.22;2.21;4.23;3.32
12759;0.41;-9.93;-0.31;0.07;0.86;-0.22;0.86;1.10;1.89
12767;0.36;-9.90;-0.46;0.07;0.87;-0.22;-0.46;-1.43;-0.06
12776;-0.16;-10.24;-0.14;0.07;0.87;-0.22;-0.38;-3.44;-2.35
12785;0.46;-10.06;0.12;0.07;0.87;-0.22;-1.17;-2.62;-0.54
12794;0.04;-10.20;0.29;0.07;0.86;-0.22;-3.59;-0.04;-0.52
12802;0.23;-10.23;0.35;0.07;0.86;-0.22;-4.54;3.05;0.62
12811;0.24;-10.23;0.31;0.07;0.86;-0.22;-4.58;4.23;1.36
12820;0.25;-10.21;0.33;0.06;0.87;-0.22;-2.70;4.31;1.92
12829;0.25;-10.20;0.38;0.06;0.87;-0.22;-1.23;3.87;2.27
12838;0.44;-10.19;0.22;0.06;0.87;-0.22;-0.26;2.96;2.12
12846;0.34;-10.15;0.21;0.07;0.85;-0.21;-0.46;2.07;2.08
12855;0.38;-10.12;0.15;0.07;0.85;-0.21;-2.04;0.17;1.13
12864;0.45;-10.12;0.01;0.07;0.85;-0.21;-3.62;-2.06;0.72
12873;0.55;-10.04;0.20;0.07;0.87;-0.21;-4.37;-3.99;0.32
12881;0.47;-10.02;0.44;0.07;0.87;-0.21;-5.97;-5.28;-0.94
12890;0.39;-10.07;0.78;0.07;0.87;-0.21;-8.89;-3.46;-0.67
12899;0.32;-10.12;0.89;0.07;0.86;-0.21;-5.63;-0.41;0.64
12908;0.40;-10.12;1.06;0.07;0.86;-0.21;-3.44;3.40;2.13
12916;0.57;-10.10;0.82;0.07;0.86;-0.21;-1.92;8.65;3.46
12925;0.70;-10.06;0.74;0.07;0.87;-0.21;-0.57;7.21;3.23
12934;0.83;-10.02;0.49;0.07;0.87;-0.21;1.13;6.27;2.61
12943;0.87;-10.05;0.35;0.07;0.86;-0.21;1.42;4.11;2.17
12951;1.09;-10.10;0.38;0.07;0.86;-0.21;1.31;2.18;1.59
12960;1.06;-10.11;0.38;0.07;0.86;-0.21;0.65;0.61;1.05
12969;1.25;-10.15;0.32;0.07;0.87;-0.21;-0.97;0.30;0.73
12977;1.31;-10.14;0.42;0.07;0.87;-0.21;-2.10;0.46;0.60
12986;1.29;-10.10;0.38;0.07;0.87;-0.21;-2.42;0.80;1.00
12995;1.38;-10.02;0.28;0.07;0.87;-0.21;-2.35;1.17;0.76
13004;1.25;-9.97;0.27;0.07;0.87;-0.21;-1.59;0.75;0.26
13012;1.43;-9.91;0.24;0.07;0.87;-0.21;2.86;-0.50;-0.77
13021;1.44;-9.88;0.16;0.07;0.87;-0.20;7.49;-2.70;-2.48
13030;1.67;-9.91;0.04;0.07;0.87;-0.20;10.09;-6.19;-5.22
13039;1.80;-10.07;0.07;0.07;0.87;-0.20;10.97;-10.17;-7.87
13047;1.93;-10.21;0.04;0.07;0.86;-0.21;11.02;-12.42;-9.19
13056;2.05;-10.34;0.23;0.07;0.86;-0.21;8.79;-13.88;-9.86
13065;2.08;-10.47;0.41;0.07;0.86;-0.21;5.67;-13.97;-9.34
13074;2.08;-10.56;0.54;0.07;0.87;-0.19;1.19;-13.06;-7.61
13082;1.89;-10.83;0.85;0.07;0.87;-0.19;-2.75;-9.88;-2.28
13091;2.00;-10.68;1.29;0.07;0.87;-0.19;-5.40;-2.68;3.56
13100;2.18;-10.27;1.28;0.07;0.87;-0.20;-10.86;5.07;6.76
13109;2.35;-10.13;1.08;0.07;0.87;-0.20;-20.02;9.83;6.21
13118;2.47;-10.04;1.18;0.07;0.87;-0.20;-21.09;10.18;5.68
13126;2.45;-10.00;1.15;0.06;0.87;-0.20;-23.19;9.56;5.21
13135;2.43;-9.92;1.32;0.06;0.87;-0.20;-26.61;6.74;4.69
13144;2.50;-9.85;1.45;0.06;0.87;-0.20;-30.63;10.24;3.60
13153;2.36;-9.91;1.67;0.07;0.86;-0.21;-37.73;12.90;2.42
13161;2.35;-9.99;1.80;0.07;0.86;-0.21;-45.64;16.94;3.18
13170;2.33;-9.89;1.85;0.07;0.86;-0.21;-51.08;22.01;4.13
13179;2.43;-9.79;1.92;0.07;0.86;-0.22;-56.77;26.85;6.14
13188;2.36;-9.74;2.02;0.07;0.86;-0.22;-56.65;27.51;6.96
13197;2.46;-9.61;2.06;0.07;0.86;-0.22;-48.89;27.99;10.48
13205;2.48;-9.39;2.00;0.07;0.85;-0.23;-38.56;27.38;10.89
13214;2.61;-9.32;2.07;0.07;0.85;-0.23;-27.12;24.65;9.42
13223;2.61;-9.20;1.91;0.07;0.85;-0.23;-15.86;22.76;7.67
13232;2.24;-8.85;1.83;0.08;0.85;-0.23;-5.21;21.63;5.90
13240;2.34;-8.67;1.66;0.08;0.85;-0.23;0.17;19.60;1.61
13249;2.38;-8.54;1.69;0.08;0.85;-0.23;-2.62;18.09;-4.78
13258;2.10;-8.53;1.77;0.08;0.84;-0.23;-7.66;15.84;-10.78
13267;1.83;-8.59;1.93;0.08;0.84;-0.23;-11.16;15.61;-15.15
13276;1.73;-8.57;2.41;0.08;0.84;-0.23;-17.05;21.20;-14.48
13284;0.96;-8.78;2.83;0.08;0.84;-0.23;-19.29;27.54;-18.82
13293;0.62;-9.04;2.87;0.08;0.84;-0.23;-14.93;34.67;-18.55
13302;0.56;-9.14;2.74;0.08;0.84;-0.23;-7.12;38.60;-20.10
13311;0.79;-9.20;2.47;0.08;0.84;-0.23;-0.64;41.85;-16.42
13320;0.91;-9.25;2.32;0.08;0.84;-0.23;2.49;43.60;-12.60
13328;0.77;-9.03;2.19;0.09;0.84;-0.24;3.64;43.69;-8.41
13337;0.41;-8.56;2.03;0.09;0.84;-0.24;4.05;43.16;-8.10
13346;0.17;-8.07;1.48;0.09;0.84;-0.24;5.84;41.61;-11.70
13355;0.54;-8.15;1.10;0.08;0.84;-0.24;4.03;35.81;-17.09
13363;0.94;-8.07;0.66;0.08;0.84;-0.24;-0.87;26.16;-22.69
13372;1.21;-8.15;0.81;0.08;0.84;-0.24;-7.47;11.26;-28.44
13381;1.55;-8.11;1.21;0.08;0.84;-0.23;-14.08;-4.30;-35.06
13390;1.81;-7.90;1.62;0.08;0.84;-0.23;-21.83;-16.77;-40.01
13398;0.70;-7.62;2.08;0.08;0.84;-0.23;-33.38;-26.45;-40.62
13407;0.10;-6.99;3.07;0.07;0.85;-0.24;-56.07;-22.65;-36.94
13416;-1.35;-6.36;3.54;0.07;0.85;-0.24;-84.68;-19.28;-43.24
13425;-2.46;-5.39;4.19;0.07;0.85;-0.24;-101.25;-24.15;-57.59
13434;-3.10;-5.12;4.82;0.06;0.84;-0.26;-102.71;-31.53;-65.92
13442;-4.30;-3.89;4.79;0.06;0.84;-0.26;-65.19;-33.52;-82.92
13451;-10.50;-2.56;5.17;0.06;0.84;-0.26;-12.01;-35.86;-112.25
13460;-7.60;-3.10;4.43;0.04;0.84;-0.27;41.29;-4.64;-156.01
13469;-8.60;-4.65;3.32;0.04;0.84;-0.27;79.75;38.56;-195.93
13477;-9.06;-7.24;1.43;0.04;0.84;-0.27;82.43;90.44;-216.22
13486;-10.24;-11.23;-1.50;0.01;0.85;-0.26;77.74;138.60;-222.27
13495;-11.46;-17.25;-5.54;0.01;0.85;-0.26;94.76;166.86;-197.40
13504;-10.15;-19.60;-11.01;0.01;0.85;-0.26;132.97;157.96;-146.93
13513;-7.19;-19.60;-16.68;-0.01;0.87;-0.24;185.25;128.23;-59.11
13521;-3.19;-19.60;-18.63;-0.01;0.87;-0.24;223.75;89.29;56.70
13530;-1.58;-18.41;-17.55;-0.01;0.87;-0.24;237.80;37.43;161.38
13539;-0.91;-11.41;-15.02;0.02;0.87;-0.19;201.49;-25.65;183.32
13548;-0.48;-5.80;-10.50;0.02;0.87;-0.19;119.09;-76.90;146.29
13556;-0.68;-3.06;-6.48;0.02;0.87;-0.19;13.82;-114.50;84.21
13565;-1.74;-3.14;-2.56;0.05;0.87;-0.18;-83.78;-134.95;13.49
13574;-2.75;-4.51;1.00;0.05;0.87;-0.18;-146.58;-133.40;-23.73
13583;-4.49;-7.32;4.40;0.05;0.87;-0.19;-155.72;-125.05;-39.85
13592;-5.75;-9.75;7.06;0.03;0.88;-0.19;-124.17;-108.85;-30.88
13600;-5.75;-10.99;8.79;0.03;0.88;-0.19;-71.54;-92.26;-15.36
13609;-4.93;-10.78;9.61;0.01;0.87;-0.22;-21.11;-66.29;2.99
13618;-4.05;-9.78;9.30;0.01;0.87;-0.22;1.96;-32.61;20.58
13627;-3.18;-9.07;8.28;0.01;0.87;-0.22;13.55;-2.64;23.99
13635;-2.82;-8.72;6.57;0.02;0.87;-0.21;18.85;17.14;17.21
13644;-1.75;-8.94;5.14;0.02;0.87;-0.21;23.03;31.33;9.59
13653;-1.63;-9.50;3.26;0.02;0.87;-0.21;25.97;42.58;2.08
13662;-1.53;-10.39;1.76;0.03;0.87;-0.20;26.15;46.71;-0.64
13670;-1.43;-10.90;0.57;0.03;0.87;-0.20;23.84;41.37;-1.53
13679;-1.01;-11.15;-0.32;0.03;0.87;-0.20;19.80;32.86;0.14
13688;-0.94;-11.22;-0.81;0.03;0.88;-0.20;13.51;24.96;3.38
13697;-0.90;-11.05;-1.00;0.03;0.88;-0.20;5.39;14.32;7.02
13706;-0.96;-10.86;-0.82;0.03;0.88;-0.20;-0.17;8.31;6.95
13714;-1.03;-10.65;-0.65;0.03;0.87;-0.21;-3.31;3.69;5.01
13723;-1.06;-10.57;-0.39;0.03;0.87;-0.21;-7.93;1.52;3.13
13732;-1.08;-10.65;-0.22;0.03;0.87;-0.21;-11.38;1.07;2.67
13741;-1.04;-10.66;0.08;0.03;0.87;-0.20;-13.38;2.41;4.19
13749;-1.12;-10.57;0.25;0.03;0.87;-0.20;-13.61;2.64;6.01
13758;-0.90;-10.26;0.47;0.03;0.87;-0.20;-14.55;2.12;9.34
13767;-0.91;-9.94;0.74;0.03;0.87;-0.21;-15.31;1.60;10.47
13776;-0.93;-9.68;0.82;0.03;0.87;-0.21;-14.70;4.82;8.55
13785;-0.51;-9.82;0.97;0.03;0.87;-0.21;-12.18;8.36;4.97
13793;-0.63;-9.91;0.70;0.03;0.86;-0.20;-10.57;17.46;8.43
13802;-0.62;-10.15;0.39;0.03;0.86;-0.20;-8.72;17.21;6.52
13811;-0.62;-10.06;-0.23;0.03;0.86;-0.20;-7.80;13.10;6.64
13820;-0.47;-9.91;-0.30;0.04;0.87;-0.21;-5.02;10.16;8.78
13828;-0.52;-9.63;-0.35;0.04;0.87;-0.21;-0.40;7.36;9.63
13837;-0.50;-9.46;-0.08;0.04;0.87;-0.21;2.78;3.79;7.81
13846;-0.53;-9.45;0.14;0.04;0.86;-0.21;4.28;1.22;4.51
13855;-0.47;-9.59;0.15;0.04;0.86;-0.21;5.18;1.26;1.60
13863;-0.60;-9.80;-0.01;0.04;0.86;-0.21;3.19;3.46;-0.80
13872;-0.54;-9.84;-0.07;0.04;0.87;-0.22;-0.69;6.30;-2.82
13881;-0.62;-9.97;-0.33;0.04;0.87;-0.22;-4.51;7.32;-3.15
13890;-0.67;-10.01;-0.27;0.04;0.87;-0.22;-4.69;6.13;-2.39
13899;-0.78;-9.96;-0.18;0.05;0.87;-0.21;-2.97;3.48;-0.64
13907;-0.80;-9.92;0.06;0.05;0.87;-0.21;-2.28;2.55;0.58
13916;-0.82;-9.88;0.20;0.05;0.87;-0.22;-0.95;3.08;1.12
13925;-0.79;-9.81;0.27;0.05;0.86;-0.22;0.12;3.37;2.18
13934;-0.78;-9.87;0.10;0.05;0.86;-0.22;3.08;3.62;3.50
13942;-0.72;-9.88;0.27;0.04;0.87;-0.21;7.04;1.59;6.18
13951;-0.69;-9.67;0.24;0.04;0.87;-0.21;8.41;-2.63;4.75
13960;-0.46;-9.46;0.33;0.04;0.87;-0.21;7.24;-3.58;4.17
13969;-0.58;-9.53;0.60;0.05;0.87;-0.22;3.94;-0.96;1.02
13977;-0.69;-9.76;0.57;0.05;0.87;-0.22;-0.35;2.00;-3.32
13986;-0.76;-10.02;0.39;0.05;0.87;-0.22;-5.35;4.66;-4.95
13995;-0.88;-10.17;0.31;0.04;0.86;-0.22;-4.96;5.73;-4.36
14003;-0.90;-10.17;0.31;0.04;0.86;-0.22;-2.88;5.96;-2.31
14012;-0.86;-10.16;0.14;0.04;0.86;-0.22;0.15;4.33;-1.29
14021;-0.87;-10.07;0.15;0.05;0.86;-0.21;3.34;3.16;-0.13
14030;-0.83;-9.92;0.08;0.05;0.86;-0.21;3.97;0.92;0.19
14039;-0.71;-9.90;0.15;0.05;0.86;-0.21;5.31;-0.52;-0.65
14047;-0.74;-9.85;0.24;0.04;0.86;-0.21;7.02;-2.62;-0.68
14056;-0.71;-9.90;0.27;0.04;0.86;-0.21;8.27;-3.26;-1.43
14065;-0.65;-10.03;0.23;0.04;0.86;-0.21;6.57;-1.50;-2.55
14074;-0.74;-10.22;0.19;0.04;0.86;-0.20;1.05;0.57;-3.53
14082;-0.88;-10.28;0.32;0.04;0.86;-0.20;-4.12;2.16;-3.72
14091;-0.94;-10.18;0.33;0.04;0.86;-0.20;-5.22;2.35;-2.61
14100;-1.09;-10.11;0.34;0.05;0.86;-0.20;-1.86;0.93;-1.41
14109;-1.07;-10.25;0.50;0.05;0.86;-0.20;3.35;-0.20;0.59
14117;-1.06;-10.17;0.57;0.05;0.86;-0.20;7.04;0.05;3.63
14126;-0.92;-9.99;0.51;0.04;0.86;-0.21;8.07;0.12;5.22
14135;-0.88;-9.78;0.57;0.04;0.86;-0.21;6.48;1.32;5.29
14144;-0.82;-9.65;0.52;0.04;0.86;-0.21;3.43;3.40;2.56
14152;-0.86;-9.71;0.27;0.05;0.86;-0.21;-0.31;6.21;-1.37
14161;-0.85;-9.96;0.01;0.05;0.86;-0.21;-4.49;8.74;-4.19
14170;-0.91;-10.17;-0.43;0.05;0.86;-0.21;-6.85;7.67;-4.51
14179;-0.83;-10.24;-0.65;0.04;0.87;-0.20;-5.72;3.54;-3.14
14187;-0.82;-10.08;-0.59;0.04;0.87;-0.20;-4.15;-2.00;-1.35
14196;-0.82;-9.82;-0.35;0.04;0.87;-0.20;-1.64;-6.69;-0.41
14205;-0.89;-9.72;-0.02;0.05;0.86;-0.20;-2.53;-9.21;-1.97
14214;-0.91;-9.79;0.17;0.05;0.86;-0.20;-4.38;-9.77;-4.08
14222;-0.96;-9.90;0.17;0.05;0.86;-0.20;-6.78;-9.57;-5.41
14231;-0.92;-10.02;0.12;0.04;0.87;-0.21;-8.02;-9.29;-5.14
14240;-0.92;-10.09;0.26;0.04;0.87;-0.21;-8.59;-8.72;-4.58
14249;-0.92;-10.09;0.37;0.04;0.87;-0.21;-9.64;-8.16;-4.47
14257;-0.95;-10.14;0.34;0.05;0.86;-0.22;-10.55;-6.98;-4.32
14266;-1.05;-10.31;0.24;0.05;0.86;-0.22;-11.02;-5.27;-5.48
14275;-1.05;-10.23;0.13;0.05;0.86;-0.21;-13.27;-7.98;-4.72
14284;-1.14;-10.18;0.40;0.04;0.87;-0.21;-12.50;-12.47;-3.08
14292;-1.32;-10.18;0.71;0.04;0.87;-0.21;-9.92;-15.28;-3.10
14301;-0.75;-10.01;1.07;0.05;0.86;-0.22;-11.94;-13.92;1.54
14310;-1.92;-10.22;1.29;0.05;0.86;-0.22;-11.46;-16.49;-1.65
14319;-1.66;-10.40;1.55;0.05;0.86;-0.22;-6.38;-13.82;-2.47
14327;-1.93;-10.66;1.36;0.03;0.86;-0.21;-3.52;-8.12;-0.32
14336;-1.95;-10.72;0.94;0.03;0.86;-0.21;-1.11;-0.20;2.40
14345;-2.04;-10.79;0.37;0.03;0.86;-0.21;-1.47;2.82;2.85
14354;-2.04;-10.60;-0.43;0.04;0.87;-0.21;-5.53;4.83;2.41
14362;-2.18;-10.04;-0.87;0.04;0.87;-0.21;-8.51;5.28;-0.23
14371;-2.34;-9.83;-1.23;0.04;0.87;-0.21;-12.32;3.00;-6.13
14380;-2.38;-9.95;-1.53;0.04;0.87;-0.22;-16.80;0.51;-8.10
14389;-2.59;-10.28;-1.49;0.04;0.87;-0.22;-23.49;-3.82;-8.57
14397;-2.93;-10.84;-1.28;0.04;0.87;-0.22;-27.24;-10.86;-6.80
14406;-3.02;-11.09;-0.92;0.03;0.87;-0.21;-27.77;-18.65;-0.44
14415;-3.22;-11.21;-0.66;0.03;0.87;-0.21;-24.18;-27.70;10.77
14424;-3.15;-11.10;-0.29;0.03;0.87;-0.21;-14.19;-34.02;23.49
14432;-3.14;-10.62;-0.04;0.03;0.86;-0.21;-1.73;-38.12;34.65
14441;-2.91;-10.07;0.12;0.03;0.86;-0.21;9.06;-40.49;43.30
14450;-2.71;-9.24;0.32;0.03;0.86;-0.21;14.13;-39.03;44.67
14459;-2.37;-8.62;0.54;0.04;0.86;-0.24;11.06;-34.47;39.53
14467;-2.16;-8.02;0.54;0.04;0.86;-0.24;4.75;-27.53;30.70
14476;-1.85;-7.88;0.46;0.04;0.86;-0.24;-3.04;-20.94;20.18
14485;-1.62;-7.78;0.44;0.04;0.85;-0.22;-11.29;-13.27;12.53
14494;-1.33;-7.87;0.12;0.04;0.85;-0.22;-18.06;-9.06;6.05
14502;-1.18;-8.10;-0.31;0.04;0.85;-0.22;-19.78;-7.80;1.01
14511;-1.28;-8.52;0.06;0.04;0.86;-0.23;-18.36;-9.57;-2.84
14520;-1.20;-8.64;0.15;0.04;0.86;-0.23;-12.14;-10.00;-1.64
14529;-1.46;-9.14;0.30;0.04;0.86;-0.23;-5.36;-7.38;-0.41
14537;-1.50;-9.30;0.34;0.04;0.86;-0.24;-2.93;-7.21;-0.89
14546;-1.69;-9.48;0.35;0.04;0.86;-0.24;-3.02;-8.23;0.07
14555;-1.82;-9.63;0.32;0.04;0.86;-0.24;-1.95;-11.07;2.23
14564;-1.75;-9.46;0.41;0.04;0.87;-0.24;0.03;-14.11;3.30
14573;-1.62;-9.36;0.44;0.04;0.87;-0.24;2.00;-18.59;1.79
14581;-1.37;-9.38;0.47;0.04;0.87;-0.24;3.25;-21.28;-3.15
14590;-1.28;-9.46;0.73;0.04;0.87;-0.23;1.47;-21.82;-7.18
14599;-1.15;-9.71;0.74;0.04;0.87;-0.23;-1.07;-20.72;-8.92
14608;-1.07;-9.89;0.69;0.04;0.87;-0.23;-4.79;-19.05;-10.50
14617;-0.92;-10.09;0.65;0.03;0.85;-0.23;-8.50;-15.76;-8.45
14625;-1.11;-10.50;0.79;0.03;0.85;-0.23;-13.48;-10.10;-5.37
14634;-1.02;-10.70;0.95;0.03;0.87;-0.24;-17.22;-3.15;-2.76
14643;-1.08;-10.71;0.69;0.03;0.87;-0.24;-13.81;-1.39;0.81
14652;-0.82;-11.03;0.67;0.03;0.87;-0.24;-2.39;-3.02;3.92
14661;-0.78;-10.67;0.61;0.03;0.86;-0.22;3.27;-5.10;6.39
14669;-0.93;-10.59;0.38;0.03;0.86;-0.22;6.45;-12.63;4.99
14678;-0.89;-10.58;0.48;0.03;0.86;-0.22;6.33;-18.86;4.87
14687;-1.02;-10.53;0.87;0.03;0.86;-0.23;3.35;-20.73;4.97
14696;-1.23;-10.36;1.35;0.03;0.86;-0.23;-1.25;-17.05;4.64
14705;-1.89;-10.61;1.57;0.03;0.86;-0.23;-8.59;-5.43;5.55
14713;-1.49;-10.93;1.82;0.04;0.87;-0.23;-14.14;5.16;6.68
14722;-1.57;-10.60;1.52;0.04;0.87;-0.23;-15.94;19.22;12.48
14731;-1.07;-10.56;1.30;0.04;0.87;-0.23;-11.54;24.09;16.96
14740;-0.76;-10.49;0.84;0.04;0.87;-0.24;1.50;24.47;22.05
14749;-0.30;-10.15;0.38;0.04;0.87;-0.24;9.78;18.39;22.94
14757;0.19;-9.86;0.20;0.04;0.87;-0.24;11.07;9.63;19.35
14766;0.30;-9.82;0.12;0.04;0.87;-0.22;5.61;-0.25;14.25
14775;0.05;-10.09;0.78;0.04;0.87;-0.22;-2.08;-6.05;13.10
14784;-0.51;-10.13;1.82;0.04;0.87;-0.22;-6.98;-4.98;13.44
14792;-0.68;-10.24;2.39;0.04;0.87;-0.22;-10.50;3.26;15.02
14801;-0.87;-10.26;2.64;0.04;0.87;-0.22;-13.60;15.24;17.34
14810;-0.70;-10.30;2.55;0.04;0.87;-0.22;-13.96;29.09;22.64
14819;-0.39;-10.09;2.00;0.05;0.86;-0.22;-4.87;37.60;28.39
14827;-0.09;-9.62;1.39;0.05;0.86;-0.22;8.66;38.41;30.91
14836;0.58;-9.28;0.76;0.05;0.86;-0.22;26.07;30.90;32.47
14845;1.26;-9.04;0.35;0.06;0.86;-0.23;45.88;18.28;33.01
14853;1.76;-9.05;0.14;0.06;0.86;-0.23;62.91;7.76;30.06
14862;2.27;-9.35;0.06;0.06;0.86;-0.23;68.14;-1.34;24.25
14871;2.89;-9.50;-0.07;0.07;0.86;-0.22;65.82;-4.66;21.19
14880;3.55;-9.92;-0.13;0.07;0.86;-0.22;57.43;-6.05;19.81
14888;3.93;-10.28;0.04;0.07;0.86;-0.22;44.36;-3.13;17.73
14897;4.59;-10.53;0.23;0.07;0.86;-0.21;25.95;0.46;20.32
14906;4.59;-10.60;0.36;0.07;0.86;-0.21;14.45;6.30;24.78
14915;4.77;-10.49;0.47;0.07;0.86;-0.21;3.53;12.69;27.19
14923;4.95;-10.40;0.38;0.08;0.87;-0.21;-5.25;19.08;28.91
14932;5.06;-10.23;0.21;0.08;0.87;-0.21;-9.47;21.84;29.40
14941;5.08;-10.04;-0.29;0.08;0.87;-0.20;-7.56;19.84;27.95
14950;5.32;-9.97;-0.78;0.09;0.86;-0.20;-2.19;13.27;23.64
14958;5.23;-9.92;-1.20;0.09;0.86;-0.20;3.62;0.99;18.70
14967;4.89;-10.05;-1.24;0.10;0.86;-0.20;10.10;-14.74;8.02
14976;4.21;-10.16;-1.27;0.10;0.86;-0.20;10.57;-29.44;4.43
14985;3.53;-10.00;-0.89;0.10;0.86;-0.20;5.27;-36.83;-3.95
14993;2.47;-9.79;-0.32;0.09;0.85;-0.20;-3.78;-45.40;-6.78
15002;1.43;-10.02;0.74;0.09;0.85;-0.20;-13.43;-45.57;-7.93
complete
